
      	X(nS)     	Ch1(mV)      


 1    	0.0000    	-70.002869  
 2    	0.0244    	-70.505981  
 3    	0.0489    	-70.434151  
 4    	0.0733    	-71.871643  
 5    	0.0977    	-71.152893  
 6    	0.1221    	-71.009163  
 7    	0.1466    	-71.584106  
 8    	0.1710    	-71.656006  
 9    	0.1954    	-71.009163  
 10   	0.2198    	-70.721626  
 11   	0.2443    	-71.512276  
 12   	0.2687    	-70.937263  
 13   	0.2931    	-70.865364  
 14   	0.3175    	-71.080994  
 15   	0.3420    	-71.152893  
 16   	0.3664    	-70.577881  
 17   	0.3908    	-70.649780  
 18   	0.4152    	-70.721626  
 19   	0.4397    	-70.505981  
 20   	0.4641    	-71.152893  
 21   	0.4885    	-69.284119  
 22   	0.5129    	-69.715401  
 23   	0.5374    	-69.715401  
 24   	0.5618    	-68.852905  
 25   	0.5862    	-69.931030  
 26   	0.6106    	-70.793526  
 27   	0.6351    	-70.649780  
 28   	0.6595    	-70.362244  
 29   	0.6839    	-70.793526  
 30   	0.7084    	-70.721626  
 31   	0.7328    	-70.649780  
 32   	0.7572    	-69.931030  
 33   	0.7816    	-70.505981  
 34   	0.8061    	-69.931030  
 35   	0.8305    	-70.362244  
 36   	0.8549    	-71.224739  
 37   	0.8793    	-70.865364  
 38   	0.9038    	-71.799744  
 39   	0.9282    	-71.368530  
 40   	0.9526    	-71.799744  
 41   	0.9770    	-71.727905  
 42   	1.0015    	-71.512276  
 43   	1.0259    	-71.727905  
 44   	1.0503    	-71.727905  
 45   	1.0747    	-71.512276  
 46   	1.0992    	-70.505981  
 47   	1.1236    	-70.002869  
 48   	1.1480    	-70.793526  
 49   	1.1724    	-70.434151  
 50   	1.1969    	-71.440376  
 51   	1.2213    	-70.793526  
 52   	1.2457    	-71.224739  
 53   	1.2702    	-71.296631  
 54   	1.2946    	-70.937263  
 55   	1.3190    	-70.865364  
 56   	1.3434    	-71.224739  
 57   	1.3679    	-71.512276  
 58   	1.3923    	-71.727905  
 59   	1.4167    	-72.015388  
 60   	1.4411    	-71.512276  
 61   	1.4656    	-71.080994  
 62   	1.4900    	-70.721626  
 63   	1.5144    	-69.859131  
 64   	1.5388    	-70.865364  
 65   	1.5633    	-71.080994  
 66   	1.5877    	-71.080994  
 67   	1.6121    	-71.224739  
 68   	1.6365    	-71.296631  
 69   	1.6610    	-72.015388  
 70   	1.6854    	-70.865364  
 71   	1.7098    	-71.584106  
 72   	1.7342    	-71.871643  
 73   	1.7587    	-71.440376  
 74   	1.7831    	-71.296631  
 75   	1.8075    	-71.296631  
 76   	1.8319    	-71.009163  
 77   	1.8564    	-71.656006  
 78   	1.8808    	-71.799744  
 79   	1.9052    	-70.793526  
 80   	1.9297    	-70.937263  
 81   	1.9541    	-70.074768  
 82   	1.9785    	-70.362244  
 83   	2.0029    	-70.146614  
 84   	2.0274    	-70.290413  
 85   	2.0518    	-71.368530  
 86   	2.0762    	-70.721626  
 87   	2.1006    	-71.080994  
 88   	2.1251    	-71.152893  
 89   	2.1495    	-70.505981  
 90   	2.1739    	-70.434151  
 91   	2.1983    	-69.212288  
 92   	2.2228    	-69.643501  
 93   	2.2472    	-69.859131  
 94   	2.2716    	-71.368530  
 95   	2.2960    	-71.009163  
 96   	2.3205    	-71.296631  
 97   	2.3449    	-71.152893  
 98   	2.3693    	-69.643501  
 99   	2.3937    	-70.074768  
 100  	2.4182    	-70.721626  
 101  	2.4426    	-71.512276  
 102  	2.4670    	-70.937263  
 103  	2.4915    	-70.865364  
 104  	2.5159    	-70.505981  
 105  	2.5403    	-70.865364  
 106  	2.5647    	-71.152893  
 107  	2.5892    	-71.368530  
 108  	2.6136    	-71.512276  
 109  	2.6380    	-70.865364  
 110  	2.6624    	-70.362244  
 111  	2.6869    	-70.002869  
 112  	2.7113    	-69.715401  
 113  	2.7357    	-69.499756  
 114  	2.7601    	-69.787231  
 115  	2.7846    	-70.218513  
 116  	2.8090    	-69.499756  
 117  	2.8334    	-70.290413  
 118  	2.8578    	-70.362244  
 119  	2.8823    	-70.074768  
 120  	2.9067    	-70.434151  
 121  	2.9311    	-71.512276  
 122  	2.9555    	-71.080994  
 123  	2.9800    	-70.793526  
 124  	3.0044    	-70.218513  
 125  	3.0288    	-70.002869  
 126  	3.0532    	-70.146614  
 127  	3.0777    	-70.146614  
 128  	3.1021    	-70.505981  
 129  	3.1265    	-71.296631  
 130  	3.1510    	-69.931030  
 131  	3.1754    	-69.212288  
 132  	3.1998    	-69.140388  
 133  	3.2242    	-69.499756  
 134  	3.2487    	-69.356018  
 135  	3.2731    	-69.499756  
 136  	3.2975    	-70.074768  
 137  	3.3219    	-70.649780  
 138  	3.3464    	-70.290413  
 139  	3.3708    	-70.937263  
 140  	3.3952    	-71.224739  
 141  	3.4196    	-71.152893  
 142  	3.4441    	-71.080994  
 143  	3.4685    	-70.937263  
 144  	3.4929    	-70.577881  
 145  	3.5173    	-70.649780  
 146  	3.5418    	-71.296631  
 147  	3.5662    	-70.505981  
 148  	3.5906    	-71.799744  
 149  	3.6150    	-71.224739  
 150  	3.6395    	-71.224739  
 151  	3.6639    	-70.793526  
 152  	3.6883    	-70.362244  
 153  	3.7128    	-69.931030  
 154  	3.7372    	-70.793526  
 155  	3.7616    	-70.577881  
 156  	3.7860    	-70.865364  
 157  	3.8105    	-70.793526  
 158  	3.8349    	-69.787231  
 159  	3.8593    	-70.505981  
 160  	3.8837    	-70.434151  
 161  	3.9082    	-70.290413  
 162  	3.9326    	-71.080994  
 163  	3.9570    	-71.080994  
 164  	3.9814    	-70.865364  
 165  	4.0059    	-71.296631  
 166  	4.0303    	-71.080994  
 167  	4.0547    	-70.793526  
 168  	4.0791    	-70.146614  
 169  	4.1036    	-71.009163  
 170  	4.1280    	-70.290413  
 171  	4.1524    	-70.505981  
 172  	4.1768    	-70.577881  
 173  	4.2013    	-69.356018  
 174  	4.2257    	-70.074768  
 175  	4.2501    	-69.859131  
 176  	4.2745    	-70.002869  
 177  	4.2990    	-70.505981  
 178  	4.3234    	-70.218513  
 179  	4.3478    	-69.859131  
 180  	4.3723    	-70.362244  
 181  	4.3967    	-70.434151  
 182  	4.4211    	-71.080994  
 183  	4.4455    	-70.290413  
 184  	4.4700    	-70.218513  
 185  	4.4944    	-71.080994  
 186  	4.5188    	-70.505981  
 187  	4.5432    	-69.643501  
 188  	4.5677    	-69.931030  
 189  	4.5921    	-70.505981  
 190  	4.6165    	-69.571655  
 191  	4.6409    	-69.715401  
 192  	4.6654    	-69.212288  
 193  	4.6898    	-69.499756  
 194  	4.7142    	-68.637276  
 195  	4.7386    	-68.349739  
 196  	4.7631    	-68.421638  
 197  	4.7875    	-67.056030  
 198  	4.8119    	-68.277893  
 199  	4.8363    	-68.493538  
 200  	4.8608    	-68.062256  
 201  	4.8852    	-68.062256  
 202  	4.9096    	-67.774780  
 203  	4.9340    	-66.984131  
 204  	4.9585    	-67.559143  
 205  	4.9829    	-66.552864  
 206  	5.0073    	-66.409119  
 207  	5.0318    	-65.618538  
 208  	5.0562    	-64.899780  
 209  	5.0806    	-64.540413  
 210  	5.1050    	-63.749763  
 211  	5.1295    	-62.527893  
 212  	5.1539    	-61.234131  
 213  	5.1783    	-60.587284  
 214  	5.2027    	-58.359135  
 215  	5.2272    	-56.705997  
 216  	5.2516    	-57.352909  
 217  	5.2760    	-56.921635  
 218  	5.3004    	-56.777897  
 219  	5.3249    	-57.137268  
 220  	5.3493    	-56.993534  
 221  	5.3737    	-57.065369  
 222  	5.3981    	-56.921635  
 223  	5.4226    	-57.281010  
 224  	5.4470    	-56.490360  
 225  	5.4714    	-53.615360  
 226  	5.4958    	-47.290405  
 227  	5.5203    	-34.999760  
 228  	5.5447    	-12.862244  
 229  	5.5691    	5.178345    
 230  	5.5936    	19.625246   
 231  	5.6180    	29.040895   
 232  	5.6424    	38.815918   
 233  	5.6668    	44.709599   
 234  	5.6913    	49.668949   
 235  	5.7157    	52.328369   
 236  	5.7401    	54.412724   
 237  	5.7645    	54.700199   
 238  	5.7890    	57.287724   
 239  	5.8134    	58.437748   
 240  	5.8378    	57.862797   
 241  	5.8622    	58.150272   
 242  	5.8867    	58.581547   
 243  	5.9111    	58.797119   
 244  	5.9355    	59.515869   
 245  	5.9599    	58.581547   
 246  	5.9844    	59.228397   
 247  	6.0088    	59.587769   
 248  	6.0332    	59.875248   
 249  	6.0576    	59.947147   
 250  	6.0821    	60.593994   
 251  	6.1065    	60.450195   
 252  	6.1309    	60.953373   
 253  	6.1553    	61.887699   
 254  	6.1798    	61.600220   
 255  	6.2042    	61.887699   
 256  	6.2286    	61.672123   
 257  	6.2531    	63.540894   
 258  	6.2775    	61.744022   
 259  	6.3019    	61.528320   
 260  	6.3263    	62.318970   
 261  	6.3508    	61.887699   
 262  	6.3752    	62.390869   
 263  	6.3996    	63.325195   
 264  	6.4240    	63.756474   
 265  	6.4485    	62.606449   
 266  	6.4729    	62.247070   
 267  	6.4973    	62.606449   
 268  	6.5217    	62.822147   
 269  	6.5462    	62.822147   
 270  	6.5706    	62.606449   
 271  	6.5950    	63.253426   
 272  	6.6194    	63.756474   
 273  	6.6439    	63.828373   
 274  	6.6683    	64.115845   
 275  	6.6927    	63.612797   
 276  	6.7171    	63.756474   
 277  	6.7416    	63.972172   
 278  	6.7660    	63.540894   
 279  	6.7904    	63.540894   
 280  	6.8149    	64.331543   
 281  	6.8393    	65.265869   
 282  	6.8637    	66.272095   
 283  	6.8881    	66.703377   
 284  	6.9126    	66.775276   
 285  	6.9370    	66.415894   
 286  	6.9614    	66.343994   
 287  	6.9858    	65.840828   
 288  	7.0103    	66.056526   
 289  	7.0347    	66.559578   
 290  	7.0591    	65.409668   
 291  	7.0835    	66.487793   
 292  	7.1080    	66.272095   
 293  	7.1324    	67.278320   
 294  	7.1568    	67.709602   
 295  	7.1812    	66.847176   
 296  	7.2057    	66.990845   
 297  	7.2301    	67.853401   
 298  	7.2545    	68.715820   
 299  	7.2789    	68.284668   
 300  	7.3034    	67.062744   
 301  	7.3278    	67.134644   
 302  	7.3522    	67.781502   
 303  	7.3766    	68.212769   
 304  	7.4011    	67.925301   
 305  	7.4255    	67.925301   
 306  	7.4499    	68.787720   
 307  	7.4744    	68.500252   
 308  	7.4988    	68.068970   
 309  	7.5232    	67.494019   
 310  	7.5476    	66.559578   
 311  	7.5721    	67.494019   
 312  	7.5965    	66.990845   
 313  	7.6209    	66.631477   
 314  	7.6453    	66.343994   
 315  	7.6698    	66.990845   
 316  	7.6942    	66.487793   
 317  	7.7186    	66.056526   
 318  	7.7430    	66.272095   
 319  	7.7675    	66.847176   
 320  	7.7919    	67.925301   
 321  	7.8163    	67.422119   
 322  	7.8407    	68.212769   
 323  	7.8652    	68.787720   
 324  	7.8896    	67.853401   
 325  	7.9140    	67.565918   
 326  	7.9384    	67.781502   
 327  	7.9629    	67.781502   
 328  	7.9873    	68.356453   
 329  	8.0117    	67.637703   
 330  	8.0362    	67.925301   
 331  	8.0606    	68.284668   
 332  	8.0850    	67.997070   
 333  	8.1094    	67.494019   
 334  	8.1339    	67.565918   
 335  	8.1583    	68.787720   
 336  	8.1827    	67.997070   
 337  	8.2071    	68.859619   
 338  	8.2316    	68.644051   
 339  	8.2560    	67.925301   
 340  	8.2804    	67.997070   
 341  	8.3048    	67.422119   
 342  	8.3293    	67.422119   
 343  	8.3537    	66.918945   
 344  	8.3781    	67.062744   
 345  	8.4025    	67.853401   
 346  	8.4270    	67.278320   
 347  	8.4514    	67.206543   
 348  	8.4758    	67.278320   
 349  	8.5002    	67.853401   
 350  	8.5247    	68.212769   
 351  	8.5491    	67.350220   
 352  	8.5735    	67.709602   
 353  	8.5979    	67.925301   
 354  	8.6224    	68.572151   
 355  	8.6468    	68.356453   
 356  	8.6712    	67.997070   
 357  	8.6957    	67.565918   
 358  	8.7201    	67.422119   
 359  	8.7445    	67.422119   
 360  	8.7689    	67.134644   
 361  	8.7934    	67.494019   
 362  	8.8178    	67.925301   
 363  	8.8422    	68.787720   
 364  	8.8666    	68.572151   
 365  	8.8911    	68.500252   
 366  	8.9155    	69.003418   
 367  	8.9399    	68.931519   
 368  	8.9643    	68.715820   
 369  	8.9888    	69.578377   
 370  	9.0132    	69.506477   
 371  	9.0376    	68.140869   
 372  	9.0620    	68.140869   
 373  	9.0865    	67.494019   
 374  	9.1109    	66.990845   
 375  	9.1353    	68.140869   
 376  	9.1597    	67.853401   
 377  	9.1842    	68.859619   
 378  	9.2086    	67.925301   
 379  	9.2330    	67.278320   
 380  	9.2574    	67.565918   
 381  	9.2819    	66.990845   
 382  	9.3063    	67.853401   
 383  	9.3307    	67.062744   
 384  	9.3552    	68.500252   
 385  	9.3796    	68.715820   
 386  	9.4040    	67.925301   
 387  	9.4284    	68.428352   
 388  	9.4529    	69.218994   
 389  	9.4773    	69.722176   
 390  	9.5017    	69.865845   
 391  	9.5261    	68.931519   
 392  	9.5506    	69.290894   
 393  	9.5750    	68.644051   
 394  	9.5994    	68.715820   
 395  	9.6238    	69.003418   
 396  	9.6483    	68.859619   
 397  	9.6727    	68.572151   
 398  	9.6971    	69.218994   
 399  	9.7215    	68.715820   
 400  	9.7460    	68.715820   
 401  	9.7704    	68.356453   
 402  	9.7948    	69.362793   
 403  	9.8192    	69.147095   
 404  	9.8437    	70.297127   
 405  	9.8681    	70.584602   
 406  	9.8925    	69.506477   
 407  	9.9170    	69.793945   
 408  	9.9414    	68.715820   
 409  	9.9658    	67.925301   
 410  	9.9902    	69.075195   
 411  	10.0147   	69.362793   
 412  	10.0391   	69.578377   
 413  	10.0635   	69.434578   
 414  	10.0879   	68.356453   
 415  	10.1124   	68.931519   
 416  	10.1368   	69.147095   
 417  	10.1612   	69.003418   
 418  	10.1856   	68.787720   
 419  	10.2101   	69.434578   
 420  	10.2345   	69.218994   
 421  	10.2589   	69.147095   
 422  	10.2833   	69.218994   
 423  	10.3078   	68.787720   
 424  	10.3322   	68.356453   
 425  	10.3566   	68.068970   
 426  	10.3810   	67.565918   
 427  	10.4055   	68.284668   
 428  	10.4299   	68.212769   
 429  	10.4543   	68.428352   
 430  	10.4787   	68.356453   
 431  	10.5032   	68.140869   
 432  	10.5276   	68.859619   
 433  	10.5520   	68.931519   
 434  	10.5765   	68.859619   
 435  	10.6009   	68.572151   
 436  	10.6253   	69.003418   
 437  	10.6497   	69.003418   
 438  	10.6742   	67.925301   
 439  	10.6986   	67.853401   
 440  	10.7230   	68.500252   
 441  	10.7474   	69.722176   
 442  	10.7719   	69.793945   
 443  	10.7963   	69.290894   
 444  	10.8207   	68.428352   
 445  	10.8451   	68.787720   
 446  	10.8696   	69.650276   
 447  	10.8940   	69.075195   
 448  	10.9184   	68.859619   
 449  	10.9428   	69.793945   
 450  	10.9673   	67.709602   
 451  	10.9917   	69.147095   
 452  	11.0161   	69.793945   
 453  	11.0405   	70.081543   
 454  	11.0650   	69.937744   
 455  	11.0894   	69.290894   
 456  	11.1138   	69.075195   
 457  	11.1383   	69.147095   
 458  	11.1627   	70.009644   
 459  	11.1871   	70.081543   
 460  	11.2115   	69.793945   
 461  	11.2360   	69.290894   
 462  	11.2604   	68.931519   
 463  	11.2848   	68.284668   
 464  	11.3092   	68.859619   
 465  	11.3337   	67.997070   
 466  	11.3581   	68.715820   
 467  	11.3825   	68.500252   
 468  	11.4069   	69.434578   
 469  	11.4314   	67.925301   
 470  	11.4558   	68.500252   
 471  	11.4802   	69.218994   
 472  	11.5046   	68.787720   
 473  	11.5291   	68.284668   
 474  	11.5535   	68.572151   
 475  	11.5779   	69.434578   
 476  	11.6023   	69.506477   
 477  	11.6268   	70.584602   
 478  	11.6512   	69.003418   
 479  	11.6756   	69.003418   
 480  	11.7000   	69.147095   
 481  	11.7245   	69.075195   
 482  	11.7489   	69.003418   
 483  	11.7733   	69.793945   
 484  	11.7978   	67.925301   
 485  	11.8222   	67.278320   
 486  	11.8466   	67.494019   
 487  	11.8710   	67.997070   
 488  	11.8955   	68.356453   
 489  	11.9199   	68.572151   
 490  	11.9443   	68.212769   
 491  	11.9687   	67.997070   
 492  	11.9932   	68.212769   
 493  	12.0176   	67.637703   
 494  	12.0420   	67.134644   
 495  	12.0664   	67.206543   
 496  	12.0909   	66.559578   
 497  	12.1153   	67.134644   
 498  	12.1397   	66.918945   
 499  	12.1641   	66.559578   
 500  	12.1886   	66.703377   
 501  	12.2130   	66.703377   
 502  	12.2374   	67.709602   
 503  	12.2618   	67.637703   
 504  	12.2863   	67.206543   
 505  	12.3107   	66.990845   
 506  	12.3351   	66.918945   
 507  	12.3596   	66.775276   
 508  	12.3840   	67.206543   
 509  	12.4084   	67.062744   
 510  	12.4328   	66.631477   
 511  	12.4573   	65.912727   
 512  	12.4817   	66.128418   
 513  	12.5061   	66.272095   
 514  	12.5305   	65.481445   
 515  	12.5550   	65.122070   
 516  	12.5794   	66.559578   
 517  	12.6038   	65.337769   
 518  	12.6282   	65.337769   
 519  	12.6527   	65.337769   
 520  	12.6771   	66.559578   
 521  	12.7015   	65.840828   
 522  	12.7259   	66.559578   
 523  	12.7504   	67.206543   
 524  	12.7748   	66.343994   
 525  	12.7992   	65.337769   
 526  	12.8236   	65.409668   
 527  	12.8481   	65.697151   
 528  	12.8725   	66.847176   
 529  	12.8969   	65.337769   
 530  	12.9213   	65.265869   
 531  	12.9458   	65.409668   
 532  	12.9702   	64.403320   
 533  	12.9946   	64.331543   
 534  	13.0191   	64.331543   
 535  	13.0435   	65.050301   
 536  	13.0679   	64.762703   
 537  	13.0923   	64.187744   
 538  	13.1168   	63.397095   
 539  	13.1412   	63.972172   
 540  	13.1656   	63.972172   
 541  	13.1900   	64.619019   
 542  	13.2145   	64.619019   
 543  	13.2389   	64.403320   
 544  	13.2633   	64.259644   
 545  	13.2877   	64.475220   
 546  	13.3122   	63.828373   
 547  	13.3366   	63.900272   
 548  	13.3610   	63.325195   
 549  	13.3854   	62.606449   
 550  	13.4099   	62.965824   
 551  	13.4343   	62.894047   
 552  	13.4587   	63.253426   
 553  	13.4831   	64.043945   
 554  	13.5076   	63.828373   
 555  	13.5320   	64.403320   
 556  	13.5564   	63.253426   
 557  	13.5808   	65.337769   
 558  	13.6053   	63.325195   
 559  	13.6297   	64.115845   
 560  	13.6541   	62.318970   
 561  	13.6786   	63.540894   
 562  	13.7030   	64.403320   
 563  	13.7274   	64.331543   
 564  	13.7518   	64.475220   
 565  	13.7763   	63.684574   
 566  	13.8007   	64.115845   
 567  	13.8251   	64.619019   
 568  	13.8495   	64.403320   
 569  	13.8740   	64.906502   
 570  	13.8984   	64.906502   
 571  	13.9228   	65.050301   
 572  	13.9472   	65.193970   
 573  	13.9717   	65.769051   
 574  	13.9961   	65.050301   
 575  	14.0205   	65.122070   
 576  	14.0449   	65.984627   
 577  	14.0694   	65.840828   
 578  	14.0938   	66.056526   
 579  	14.1182   	65.122070   
 580  	14.1426   	65.337769   
 581  	14.1671   	64.762703   
 582  	14.1915   	64.762703   
 583  	14.2159   	64.547119   
 584  	14.2404   	65.122070   
 585  	14.2648   	64.259644   
 586  	14.2892   	64.403320   
 587  	14.3136   	64.115845   
 588  	14.3381   	64.331543   
 589  	14.3625   	64.259644   
 590  	14.3869   	63.684574   
 591  	14.4113   	64.115845   
 592  	14.4358   	64.187744   
 593  	14.4602   	64.259644   
 594  	14.4846   	63.756474   
 595  	14.5090   	63.828373   
 596  	14.5335   	64.690918   
 597  	14.5579   	64.906502   
 598  	14.5823   	64.834602   
 599  	14.6067   	65.409668   
 600  	14.6312   	65.337769   
 601  	14.6556   	65.697151   
 602  	14.6800   	64.906502   
 603  	14.7044   	64.906502   
 604  	14.7289   	65.481445   
 605  	14.7533   	65.337769   
 606  	14.7777   	64.762703   
 607  	14.8021   	65.481445   
 608  	14.8266   	65.840828   
 609  	14.8510   	65.122070   
 610  	14.8754   	64.547119   
 611  	14.8999   	65.122070   
 612  	14.9243   	64.547119   
 613  	14.9487   	64.259644   
 614  	14.9731   	63.972172   
 615  	14.9976   	64.187744   
 616  	15.0220   	64.331543   
 617  	15.0464   	65.122070   
 618  	15.0708   	65.481445   
 619  	15.0953   	65.050301   
 620  	15.1197   	65.265869   
 621  	15.1441   	65.769051   
 622  	15.1685   	64.834602   
 623  	15.1930   	63.972172   
 624  	15.2174   	64.259644   
 625  	15.2418   	64.762703   
 626  	15.2662   	64.834602   
 627  	15.2907   	64.619019   
 628  	15.3151   	64.187744   
 629  	15.3395   	63.900272   
 630  	15.3639   	63.900272   
 631  	15.3884   	63.325195   
 632  	15.4128   	63.468994   
 633  	15.4372   	63.397095   
 634  	15.4617   	63.828373   
 635  	15.4861   	64.331543   
 636  	15.5105   	64.547119   
 637  	15.5349   	65.409668   
 638  	15.5594   	64.475220   
 639  	15.5838   	64.978401   
 640  	15.6082   	63.972172   
 641  	15.6326   	63.468994   
 642  	15.6571   	64.475220   
 643  	15.6815   	64.978401   
 644  	15.7059   	64.762703   
 645  	15.7303   	63.900272   
 646  	15.7548   	63.468994   
 647  	15.7792   	62.534668   
 648  	15.8036   	62.750248   
 649  	15.8280   	62.534668   
 650  	15.8525   	62.318970   
 651  	15.8769   	62.750248   
 652  	15.9013   	62.606449   
 653  	15.9257   	62.031498   
 654  	15.9502   	61.025272   
 655  	15.9746   	61.456543   
 656  	15.9990   	60.665894   
 657  	16.0234   	60.881474   
 658  	16.0479   	60.737793   
 659  	16.0723   	60.737793   
 660  	16.0967   	60.881474   
 661  	16.1212   	62.031498   
 662  	16.1456   	61.456543   
 663  	16.1700   	60.953373   
 664  	16.1944   	61.025272   
 665  	16.2189   	59.515869   
 666  	16.2433   	59.084599   
 667  	16.2677   	58.797119   
 668  	16.2921   	58.509647   
 669  	16.3166   	58.150272   
 670  	16.3410   	57.790897   
 671  	16.3654   	58.006474   
 672  	16.3898   	58.222172   
 673  	16.4143   	57.647099   
 674  	16.4387   	56.712772   
 675  	16.4631   	55.778324   
 676  	16.4875   	55.347172   
 677  	16.5120   	54.628422   
 678  	16.5364   	53.909672   
 679  	16.5608   	53.406498   
 680  	16.5852   	53.693970   
 681  	16.6097   	53.047123   
 682  	16.6341   	53.837772   
 683  	16.6585   	52.759644   
 684  	16.6830   	52.472172   
 685  	16.7074   	52.687748   
 686  	16.7318   	50.962769   
 687  	16.7562   	51.825199   
 688  	16.7807   	50.244022   
 689  	16.8051   	49.597168   
 690  	16.8295   	49.381470   
 691  	16.8539   	49.165894   
 692  	16.8784   	48.519047   
 693  	16.9028   	47.369022   
 694  	16.9272   	47.943974   
 695  	16.9516   	47.225224   
 696  	16.9761   	46.290894   
 697  	17.0005   	45.428349   
 698  	17.0249   	46.434574   
 699  	17.0493   	44.925293   
 700  	17.0738   	46.218994   
 701  	17.0982   	45.715820   
 702  	17.1226   	44.494019   
 703  	17.1470   	44.709599   
 704  	17.1715   	45.212772   
 705  	17.1959   	44.565918   
 706  	17.2203   	44.997074   
 707  	17.2447   	45.356449   
 708  	17.2692   	43.703373   
 709  	17.2936   	43.128418   
 710  	17.3180   	43.056519   
 711  	17.3425   	41.259644   
 712  	17.3669   	40.397099   
 713  	17.3913   	40.109619   
 714  	17.4157   	39.318970   
 715  	17.4402   	38.456543   
 716  	17.4646   	37.953369   
 717  	17.4890   	38.025269   
 718  	17.5134   	37.162724   
 719  	17.5379   	36.803345   
 720  	17.5623   	37.162724   
 721  	17.5867   	36.587769   
 722  	17.6111   	35.293949   
 723  	17.6356   	34.359623   
 724  	17.6600   	34.862797   
 725  	17.6844   	34.000248   
 726  	17.7088   	34.072144   
 727  	17.7333   	33.065922   
 728  	17.7577   	31.772095   
 729  	17.7821   	31.340822   
 730  	17.8065   	31.915895   
 731  	17.8310   	30.693974   
 732  	17.8554   	30.478394   
 733  	17.8798   	29.256472   
 734  	17.9042   	28.178347   
 735  	17.9287   	26.668947   
 736  	17.9531   	26.309572   
 737  	17.9775   	26.525269   
 738  	18.0020   	26.668947   
 739  	18.0264   	25.950197   
 740  	18.0508   	24.512695   
 741  	18.0752   	23.290894   
 742  	18.0997   	23.290894   
 743  	18.1241   	23.218994   
 744  	18.1485   	22.572144   
 745  	18.1729   	23.003420   
 746  	18.1974   	21.997072   
 747  	18.2218   	21.278320   
 748  	18.2462   	20.631470   
 749  	18.2706   	20.343996   
 750  	18.2951   	19.122070   
 751  	18.3195   	19.840820   
 752  	18.3439   	18.834597   
 753  	18.3683   	18.187746   
 754  	18.3928   	17.468996   
 755  	18.4172   	16.965822   
 756  	18.4416   	16.534668   
 757  	18.4660   	16.678345   
 758  	18.4905   	16.318972   
 759  	18.5149   	15.168945   
 760  	18.5393   	15.097168   
 761  	18.5638   	13.803346   
 762  	18.5882   	12.222169   
 763  	18.6126   	10.784669   
 764  	18.6370   	10.353394   
 765  	18.6615   	8.700195    
 766  	18.6859   	7.981445    
 767  	18.7103   	7.693970    
 768  	18.7347   	6.040894    
 769  	18.7592   	5.681519    
 770  	18.7836   	3.669007    
 771  	18.8080   	3.093994    
 772  	18.8324   	2.590882    
 773  	18.8569   	1.872131    
 774  	18.8813   	1.872131    
 775  	18.9057   	0.865845    
 776  	18.9301   	-0.068481   
 777  	18.9546   	-0.859131   
 778  	18.9790   	-1.290405   
 779  	19.0034   	-2.224732   
 780  	19.0278   	-3.159119   
 781  	19.0523   	-4.740356   
 782  	19.0767   	-5.315369   
 783  	19.1011   	-6.752869   
 784  	19.1255   	-8.334107   
 785  	19.1500   	-9.196655   
 786  	19.1744   	-10.274780  
 787  	19.1988   	-10.490356  
 788  	19.2233   	-10.993531  
 789  	19.2477   	-11.209106  
 790  	19.2721   	-12.934144  
 791  	19.2965   	-14.874757  
 792  	19.3210   	-15.018495  
 793  	19.3454   	-15.880982  
 794  	19.3698   	-16.527895  
 795  	19.3942   	-16.168518  
 796  	19.4187   	-17.534119  
 797  	19.4431   	-18.252869  
 798  	19.4675   	-18.971621  
 799  	19.4919   	-19.618532  
 800  	19.5164   	-20.337280  
 801  	19.5408   	-20.840393  
 802  	19.5652   	-21.630981  
 803  	19.5896   	-22.996645  
 804  	19.6141   	-23.212280  
 805  	19.6385   	-23.356018  
 806  	19.6629   	-24.793518  
 807  	19.6873   	-25.296633  
 808  	19.7118   	-26.087282  
 809  	19.7362   	-26.446655  
 810  	19.7606   	-27.452883  
 811  	19.7851   	-27.668520  
 812  	19.8095   	-27.524782  
 813  	19.8339   	-28.099733  
 814  	19.8583   	-29.321657  
 815  	19.8828   	-30.471619  
 816  	19.9072   	-31.262270  
 817  	19.9316   	-32.340393  
 818  	19.9560   	-31.406006  
 819  	19.9805   	-32.196659  
 820  	20.0049   	-32.987244  
 821  	20.0293   	-33.993530  
 822  	20.0537   	-33.634159  
 823  	20.0782   	-34.927860  
 824  	20.1026   	-34.352905  
 825  	20.1270   	-34.640381  
 826  	20.1514   	-34.999760  
 827  	20.1759   	-35.502872  
 828  	20.2003   	-36.293518  
 829  	20.2247   	-36.365360  
 830  	20.2491   	-36.724735  
 831  	20.2736   	-38.018494  
 832  	20.2980   	-37.156006  
 833  	20.3224   	-37.371647  
 834  	20.3468   	-38.521606  
 835  	20.3713   	-39.096622  
 836  	20.3957   	-38.809147  
 837  	20.4201   	-39.743534  
 838  	20.4446   	-39.959110  
 839  	20.4690   	-39.743534  
 840  	20.4934   	-41.252869  
 841  	20.5178   	-42.187256  
 842  	20.5423   	-41.827881  
 843  	20.5667   	-42.690369  
 844  	20.5911   	-43.409122  
 845  	20.6155   	-43.049744  
 846  	20.6400   	-43.265385  
 847  	20.6644   	-44.630985  
 848  	20.6888   	-44.630985  
 849  	20.7132   	-45.277897  
 850  	20.7377   	-46.212284  
 851  	20.7621   	-47.146610  
 852  	20.7865   	-46.715397  
 853  	20.8109   	-48.152897  
 854  	20.8354   	-48.224731  
 855  	20.8598   	-49.518497  
 856  	20.8842   	-50.380985  
 857  	20.9086   	-51.315372  
 858  	20.9331   	-52.177860  
 859  	20.9575   	-51.818485  
 860  	20.9819   	-52.177860  
 861  	21.0064   	-52.393494  
 862  	21.0308   	-52.824772  
 863  	21.0552   	-53.687260  
 864  	21.0796   	-54.262272  
 865  	21.1041   	-54.190372  
 866  	21.1285   	-54.693481  
 867  	21.1529   	-55.196659  
 868  	21.1773   	-55.915409  
 869  	21.2018   	-56.130981  
 870  	21.2262   	-56.634155  
 871  	21.2506   	-56.705997  
 872  	21.2750   	-57.712284  
 873  	21.2995   	-58.287235  
 874  	21.3239   	-58.071655  
 875  	21.3483   	-59.581001  
 876  	21.3727   	-60.371647  
 877  	21.3972   	-60.227905  
 878  	21.4216   	-60.515385  
 879  	21.4460   	-60.587284  
 880  	21.4704   	-60.515385  
 881  	21.4949   	-59.868534  
 882  	21.5193   	-60.874760  
 883  	21.5437   	-60.587284  
 884  	21.5681   	-60.587284  
 885  	21.5926   	-60.371647  
 886  	21.6170   	-61.306030  
 887  	21.6414   	-60.659119  
 888  	21.6659   	-60.515385  
 889  	21.6903   	-60.731018  
 890  	21.7147   	-61.018497  
 891  	21.7391   	-60.156006  
 892  	21.7636   	-60.946659  
 893  	21.7880   	-61.377876  
 894  	21.8124   	-61.162231  
 895  	21.8368   	-61.880989  
 896  	21.8613   	-61.809143  
 897  	21.8857   	-61.449776  
 898  	21.9101   	-61.234131  
 899  	21.9345   	-61.665409  
 900  	21.9590   	-61.880989  
 901  	21.9834   	-62.240360  
 902  	22.0078   	-61.521610  
 903  	22.0322   	-61.593510  
 904  	22.0567   	-61.737244  
 905  	22.0811   	-62.384159  
 906  	22.1055   	-63.246647  
 907  	22.1299   	-63.318485  
 908  	22.1544   	-63.821663  
 909  	22.1788   	-64.684143  
 910  	22.2032   	-64.684143  
 911  	22.2277   	-64.396614  
 912  	22.2521   	-65.187256  
 913  	22.2765   	-64.612244  
 914  	22.3009   	-64.252876  
 915  	22.3254   	-64.037231  
 916  	22.3498   	-65.259155  
 917  	22.3742   	-65.618538  
 918  	22.3986   	-65.474739  
 919  	22.4231   	-67.127869  
 920  	22.4475   	-66.768501  
 921  	22.4719   	-66.193489  
 922  	22.4963   	-67.630981  
 923  	22.5208   	-67.630981  
 924  	22.5452   	-67.487244  
 925  	22.5696   	-68.349739  
 926  	22.5940   	-68.349739  
 927  	22.6185   	-67.990356  
 928  	22.6429   	-68.062256  
 929  	22.6673   	-67.343513  
 930  	22.6917   	-68.565376  
 931  	22.7162   	-68.637276  
 932  	22.7406   	-67.559143  
 933  	22.7650   	-67.487244  
 934  	22.7894   	-68.277893  
 935  	22.8139   	-68.637276  
 936  	22.8383   	-68.709106  
 937  	22.8627   	-68.493538  
 938  	22.8872   	-67.918526  
 939  	22.9116   	-67.918526  
 940  	22.9360   	-67.990356  
 941  	22.9604   	-67.343513  
 942  	22.9849   	-66.552864  
 943  	23.0093   	-67.343513  
 944  	23.0337   	-67.056030  
 945  	23.0581   	-67.415413  
 946  	23.0826   	-67.343513  
 947  	23.1070   	-67.415413  
 948  	23.1314   	-66.049751  
 949  	23.1558   	-66.265388  
 950  	23.1803   	-65.187256  
 951  	23.2047   	-64.827881  
 952  	23.2291   	-62.743534  
 953  	23.2535   	-61.665409  
 954  	23.2780   	-61.377876  
 955  	23.3024   	-61.377876  
 956  	23.3268   	-61.162231  
 957  	23.3512   	-60.299747  
 958  	23.3757   	-60.659119  
 959  	23.4001   	-60.371647  
 960  	23.4245   	-59.077885  
 961  	23.4489   	-59.581001  
 962  	23.4734   	-59.005985  
 963  	23.4978   	-58.646610  
 964  	23.5222   	-57.999756  
 965  	23.5467   	-56.418522  
 966  	23.5711   	-54.190372  
 967  	23.5955   	-49.302860  
 968  	23.6199   	-44.918522  
 969  	23.6444   	-35.431034  
 970  	23.6688   	-25.152895  
 971  	23.6932   	-15.593508  
 972  	23.7176   	-5.818482   
 973  	23.7421   	1.081482    
 974  	23.7665   	6.831543    
 975  	23.7909   	11.359620   
 976  	23.8153   	15.456544   
 977  	23.8398   	19.122070   
 978  	23.8642   	21.350222   
 979  	23.8886   	23.003420   
 980  	23.9130   	24.728395   
 981  	23.9375   	26.237795   
 982  	23.9619   	27.890869   
 983  	23.9863   	29.256472   
 984  	24.0107   	30.190920   
 985  	24.0352   	29.759645   
 986  	24.0596   	31.700195   
 987  	24.0840   	33.712769   
 988  	24.1085   	33.640869   
 989  	24.1329   	34.072144   
 990  	24.1573   	35.222168   
 991  	24.1817   	35.581543   
 992  	24.2062   	35.940922   
 993  	24.2306   	36.228397   
 994  	24.2550   	38.456543   
 995  	24.2794   	37.665897   
 996  	24.3039   	38.312744   
 997  	24.3283   	38.384644   
 998  	24.3527   	39.534672   
 999  	24.3771   	39.247070   
 1000 	24.4016   	39.462772   
 1001 	24.4260   	39.822144   
 1002 	24.4504   	40.181519   
 1003 	24.4748   	40.253418   
 1004 	24.4993   	40.540897   
 1005 	24.5237   	40.397099   
 1006 	24.5481   	41.331543   
 1007 	24.5725   	41.403320   
 1008 	24.5970   	41.762699   
 1009 	24.6214   	42.481445   
 1010 	24.6458   	42.553345   
 1011 	24.6702   	43.703373   
 1012 	24.6947   	43.559574   
 1013 	24.7191   	44.134647   
 1014 	24.7435   	44.350220   
 1015 	24.7680   	44.925293   
 1016 	24.7924   	43.631474   
 1017 	24.8168   	43.990849   
 1018 	24.8412   	45.356449   
 1019 	24.8657   	46.147095   
 1020 	24.8901   	45.931522   
 1021 	24.9145   	45.428349   
 1022 	24.9389   	45.428349   
 1023 	24.9634   	44.565918   
 1024 	24.9878   	45.356449   
 1025 	25.0122   	46.362793   
 1026 	25.0366   	46.003422   
 1027 	25.0611   	47.009647   
 1028 	25.0855   	47.512695   
 1029 	25.1099   	47.153320   
 1030 	25.1343   	47.225224   
 1031 	25.1588   	47.081547   
 1032 	25.1832   	48.015873   
 1033 	25.2076   	48.375248   
 1034 	25.2320   	48.734623   
 1035 	25.2565   	49.093994   
 1036 	25.2809   	48.950195   
 1037 	25.3053   	48.662724   
 1038 	25.3298   	49.093994   
 1039 	25.3542   	49.525269   
 1040 	25.3786   	49.525269   
 1041 	25.4030   	50.172123   
 1042 	25.4275   	49.884647   
 1043 	25.4519   	49.309574   
 1044 	25.4763   	49.165894   
 1045 	25.5007   	49.884647   
 1046 	25.5252   	50.172123   
 1047 	25.5496   	50.531498   
 1048 	25.5740   	50.459595   
 1049 	25.5984   	51.106449   
 1050 	25.6229   	50.890869   
 1051 	25.6473   	51.106449   
 1052 	25.6717   	51.106449   
 1053 	25.6961   	52.184570   
 1054 	25.7206   	52.615849   
 1055 	25.7450   	51.609623   
 1056 	25.7694   	51.178349   
 1057 	25.7938   	50.818970   
 1058 	25.8183   	51.178349   
 1059 	25.8427   	51.897099   
 1060 	25.8671   	52.184570   
 1061 	25.8915   	52.543949   
 1062 	25.9160   	51.897099   
 1063 	25.9404   	53.622070   
 1064 	25.9648   	52.543949   
 1065 	25.9893   	52.184570   
 1066 	26.0137   	53.047123   
 1067 	26.0381   	52.759644   
 1068 	26.0625   	53.119022   
 1069 	26.0870   	54.484623   
 1070 	26.1114   	54.987797   
 1071 	26.1358   	55.562744   
 1072 	26.1602   	56.568974   
 1073 	26.1847   	57.575199   
 1074 	26.2091   	56.712772   
 1075 	26.2335   	57.000244   
 1076 	26.2579   	58.365849   
 1077 	26.2824   	57.934574   
 1078 	26.3068   	58.653324   
 1079 	26.3312   	58.940918   
 1080 	26.3556   	59.084599   
 1081 	26.3801   	60.306522   
 1082 	26.4045   	62.534668   
 1083 	26.4289   	69.147095   
 1084 	26.4533   	79.281494   
 1085 	26.4778   	86.900269   
 1086 	26.5022   	91.787727   
 1087 	26.5266   	93.512703   
 1088 	26.5511   	94.375244   
 1089 	26.5755   	92.650276   
 1090 	26.5999   	92.147095   
 1091 	26.6243   	89.631470   
 1092 	26.6488   	87.475220   
 1093 	26.6732   	84.600227   
 1094 	26.6976   	83.450203   
 1095 	26.7220   	81.006470   
 1096 	26.7465   	78.634644   
 1097 	26.7709   	76.837776   
 1098 	26.7953   	75.040901   
 1099 	26.8197   	75.256477   
 1100 	26.8442   	74.465820   
 1101 	26.8686   	73.603394   
 1102 	26.8930   	71.159668   
 1103 	26.9174   	69.506477   
 1104 	26.9419   	69.793945   
 1105 	26.9663   	67.853401   
 1106 	26.9907   	67.637703   
 1107 	27.0151   	66.918945   
 1108 	27.0396   	66.128418   
 1109 	27.0640   	65.697151   
 1110 	27.0884   	64.834602   
 1111 	27.1128   	64.115845   
 1112 	27.1373   	63.468994   
 1113 	27.1617   	63.109627   
 1114 	27.1861   	62.750248   
 1115 	27.2106   	61.672123   
 1116 	27.2350   	61.025272   
 1117 	27.2594   	61.025272   
 1118 	27.2838   	60.378422   
 1119 	27.3083   	60.593994   
 1120 	27.3327   	59.947147   
 1121 	27.3571   	60.019047   
 1122 	27.3815   	59.659668   
 1123 	27.4060   	59.228397   
 1124 	27.4304   	57.575199   
 1125 	27.4548   	57.790897   
 1126 	27.4792   	58.869019   
 1127 	27.5037   	57.934574   
 1128 	27.5281   	57.072147   
 1129 	27.5525   	59.228397   
 1130 	27.5769   	58.869019   
 1131 	27.6014   	58.653324   
 1132 	27.6258   	57.862797   
 1133 	27.6502   	57.790897   
 1134 	27.6746   	57.718998   
 1135 	27.6991   	57.575199   
 1136 	27.7235   	58.150272   
 1137 	27.7479   	57.718998   
 1138 	27.7723   	56.640873   
 1139 	27.7968   	56.281498   
 1140 	27.8212   	55.922123   
 1141 	27.8456   	56.209599   
 1142 	27.8701   	56.425297   
 1143 	27.8945   	56.856445   
 1144 	27.9189   	58.222172   
 1145 	27.9433   	58.437748   
 1146 	27.9678   	57.790897   
 1147 	27.9922   	57.359623   
 1148 	28.0166   	56.497074   
 1149 	28.0410   	56.568974   
 1150 	28.0655   	56.640873   
 1151 	28.0899   	56.712772   
 1152 	28.1143   	56.353397   
 1153 	28.1387   	55.778324   
 1154 	28.1632   	55.347172   
 1155 	28.1876   	55.562744   
 1156 	28.2120   	55.490845   
 1157 	28.2364   	55.850224   
 1158 	28.2609   	56.497074   
 1159 	28.2853   	56.497074   
 1160 	28.3097   	55.634644   
 1161 	28.3341   	55.922123   
 1162 	28.3586   	55.562744   
 1163 	28.3830   	55.203373   
 1164 	28.4074   	55.203373   
 1165 	28.4319   	55.634644   
 1166 	28.4563   	54.915897   
 1167 	28.4807   	54.700199   
 1168 	28.5051   	54.987797   
 1169 	28.5296   	54.197144   
 1170 	28.5540   	53.693970   
 1171 	28.5784   	54.269043   
 1172 	28.6028   	55.418945   
 1173 	28.6273   	55.490845   
 1174 	28.6517   	55.490845   
 1175 	28.6761   	54.556522   
 1176 	28.7005   	54.772099   
 1177 	28.7250   	55.418945   
 1178 	28.7494   	55.131474   
 1179 	28.7738   	55.490845   
 1180 	28.7982   	55.059570   
 1181 	28.8227   	54.484623   
 1182 	28.8471   	55.059570   
 1183 	28.8715   	54.915897   
 1184 	28.8959   	55.922123   
 1185 	28.9204   	56.353397   
 1186 	28.9448   	55.275272   
 1187 	28.9692   	54.915897   
 1188 	28.9936   	55.131474   
 1189 	29.0181   	54.772099   
 1190 	29.0425   	55.922123   
 1191 	29.0669   	55.347172   
 1192 	29.0914   	55.203373   
 1193 	29.1158   	55.131474   
 1194 	29.1402   	55.131474   
 1195 	29.1646   	55.347172   
 1196 	29.1891   	56.425297   
 1197 	29.2135   	55.994022   
 1198 	29.2379   	55.275272   
 1199 	29.2623   	55.490845   
 1200 	29.2868   	55.490845   
 1201 	29.3112   	55.059570   
 1202 	29.3356   	54.987797   
 1203 	29.3600   	54.700199   
 1204 	29.3845   	54.556522   
 1205 	29.4089   	55.059570   
 1206 	29.4333   	54.340824   
 1207 	29.4577   	54.628422   
 1208 	29.4822   	54.843998   
 1209 	29.5066   	53.550297   
 1210 	29.5310   	55.059570   
 1211 	29.5554   	55.131474   
 1212 	29.5799   	55.922123   
 1213 	29.6043   	56.928345   
 1214 	29.6287   	55.994022   
 1215 	29.6532   	56.281498   
 1216 	29.6776   	56.497074   
 1217 	29.7020   	54.340824   
 1218 	29.7264   	54.340824   
 1219 	29.7509   	53.406498   
 1220 	29.7753   	53.765869   
 1221 	29.7997   	54.915897   
 1222 	29.8241   	55.490845   
 1223 	29.8486   	54.412724   
 1224 	29.8730   	53.837772   
 1225 	29.8974   	53.909672   
 1226 	29.9218   	53.693970   
 1227 	29.9463   	53.406498   
 1228 	29.9707   	54.484623   
 1229 	29.9951   	54.197144   
 1230 	30.0195   	54.340824   
 1231 	30.0440   	54.269043   
 1232 	30.0684   	54.412724   
 1233 	30.0928   	55.490845   
 1234 	30.1172   	54.197144   
 1235 	30.1417   	53.981449   
 1236 	30.1661   	53.262699   
 1237 	30.1905   	53.262699   
 1238 	30.2149   	53.478397   
 1239 	30.2394   	55.059570   
 1240 	30.2638   	54.412724   
 1241 	30.2882   	54.269043   
 1242 	30.3127   	54.197144   
 1243 	30.3371   	53.622070   
 1244 	30.3615   	53.406498   
 1245 	30.3859   	53.262699   
 1246 	30.4104   	54.197144   
 1247 	30.4348   	53.262699   
 1248 	30.4592   	53.550297   
 1249 	30.4836   	53.550297   
 1250 	30.5081   	53.119022   
 1251 	30.5325   	52.687748   
 1252 	30.5569   	53.190922   
 1253 	30.5813   	53.765869   
 1254 	30.6058   	54.340824   
 1255 	30.6302   	54.125244   
 1256 	30.6546   	52.400269   
 1257 	30.6790   	52.831543   
 1258 	30.7035   	52.112797   
 1259 	30.7279   	53.119022   
 1260 	30.7523   	52.831543   
 1261 	30.7767   	53.047123   
 1262 	30.8012   	52.687748   
 1263 	30.8256   	52.472172   
 1264 	30.8500   	53.622070   
 1265 	30.8745   	52.903324   
 1266 	30.8989   	53.478397   
 1267 	30.9233   	53.478397   
 1268 	30.9477   	53.334599   
 1269 	30.9722   	52.759644   
 1270 	30.9966   	53.190922   
 1271 	31.0210   	53.406498   
 1272 	31.0454   	52.615849   
 1273 	31.0699   	51.394047   
 1274 	31.0943   	51.825199   
 1275 	31.1187   	52.472172   
 1276 	31.1431   	52.112797   
 1277 	31.1676   	52.328369   
 1278 	31.1920   	52.112797   
 1279 	31.2164   	51.178349   
 1280 	31.2408   	51.322147   
 1281 	31.2653   	51.681522   
 1282 	31.2897   	50.747070   
 1283 	31.3141   	51.394047   
 1284 	31.3385   	50.962769   
 1285 	31.3630   	51.609623   
 1286 	31.3874   	52.256470   
 1287 	31.4118   	52.184570   
 1288 	31.4362   	51.394047   
 1289 	31.4607   	50.100224   
 1290 	31.4851   	50.459595   
 1291 	31.5095   	51.394047   
 1292 	31.5340   	51.034668   
 1293 	31.5584   	51.322147   
 1294 	31.5828   	51.681522   
 1295 	31.6072   	52.400269   
 1296 	31.6317   	52.184570   
 1297 	31.6561   	51.322147   
 1298 	31.6805   	51.825199   
 1299 	31.7049   	51.178349   
 1300 	31.7294   	51.753422   
 1301 	31.7538   	51.394047   
 1302 	31.7782   	50.747070   
 1303 	31.8026   	52.687748   
 1304 	31.8271   	51.968998   
 1305 	31.8515   	50.962769   
 1306 	31.8759   	50.890869   
 1307 	31.9003   	51.106449   
 1308 	31.9248   	51.250248   
 1309 	31.9492   	50.890869   
 1310 	31.9736   	50.890869   
 1311 	31.9980   	50.962769   
 1312 	32.0225   	51.968998   
 1313 	32.0469   	51.968998   
 1314 	32.0713   	51.106449   
 1315 	32.0957   	52.184570   
 1316 	32.1202   	52.400269   
 1317 	32.1446   	53.190922   
 1318 	32.1690   	52.256470   
 1319 	32.1935   	51.394047   
 1320 	32.2179   	51.394047   
 1321 	32.2423   	51.178349   
 1322 	32.2667   	51.753422   
 1323 	32.2912   	51.753422   
 1324 	32.3156   	51.034668   
 1325 	32.3400   	51.825199   
 1326 	32.3644   	51.753422   
 1327 	32.3889   	51.537724   
 1328 	32.4133   	50.459595   
 1329 	32.4377   	50.818970   
 1330 	32.4621   	50.603397   
 1331 	32.4866   	50.531498   
 1332 	32.5110   	51.106449   
 1333 	32.5354   	51.250248   
 1334 	32.5598   	51.178349   
 1335 	32.5843   	51.178349   
 1336 	32.6087   	51.034668   
 1337 	32.6331   	51.322147   
 1338 	32.6575   	50.818970   
 1339 	32.6820   	49.956547   
 1340 	32.7064   	50.747070   
 1341 	32.7308   	50.028324   
 1342 	32.7553   	50.244022   
 1343 	32.7797   	50.675297   
 1344 	32.8041   	52.112797   
 1345 	32.8285   	52.112797   
 1346 	32.8530   	51.537724   
 1347 	32.8774   	51.825199   
 1348 	32.9018   	52.400269   
 1349 	32.9262   	52.543949   
 1350 	32.9507   	52.112797   
 1351 	32.9751   	52.184570   
 1352 	32.9995   	52.472172   
 1353 	33.0239   	52.112797   
 1354 	33.0484   	52.040897   
 1355 	33.0728   	52.903324   
 1356 	33.0972   	51.897099   
 1357 	33.1216   	52.543949   
 1358 	33.1461   	51.034668   
 1359 	33.1705   	51.465824   
 1360 	33.1949   	50.675297   
 1361 	33.2193   	50.675297   
 1362 	33.2438   	51.178349   
 1363 	33.2682   	52.543949   
 1364 	33.2926   	50.315922   
 1365 	33.3170   	52.328369   
 1366 	33.3415   	52.903324   
 1367 	33.3659   	51.897099   
 1368 	33.3903   	52.256470   
 1369 	33.4148   	52.184570   
 1370 	33.4392   	52.543949   
 1371 	33.4636   	51.753422   
 1372 	33.4880   	52.400269   
 1373 	33.5125   	51.968998   
 1374 	33.5369   	51.537724   
 1375 	33.5613   	51.394047   
 1376 	33.5857   	51.106449   
 1377 	33.6102   	51.034668   
 1378 	33.6346   	52.328369   
 1379 	33.6590   	51.537724   
 1380 	33.6834   	50.962769   
 1381 	33.7079   	52.256470   
 1382 	33.7323   	51.537724   
 1383 	33.7567   	51.609623   
 1384 	33.7811   	50.890869   
 1385 	33.8056   	50.675297   
 1386 	33.8300   	51.825199   
 1387 	33.8544   	52.543949   
 1388 	33.8788   	52.184570   
 1389 	33.9033   	52.831543   
 1390 	33.9277   	50.387695   
 1391 	33.9521   	49.812748   
 1392 	33.9766   	49.237797   
 1393 	34.0010   	50.172123   
 1394 	34.0254   	51.178349   
 1395 	34.0498   	50.315922   
 1396 	34.0743   	49.956547   
 1397 	34.0987   	50.100224   
 1398 	34.1231   	50.675297   
 1399 	34.1475   	50.747070   
 1400 	34.1720   	49.884647   
 1401 	34.1964   	49.022095   
 1402 	34.2208   	49.381470   
 1403 	34.2452   	49.022095   
 1404 	34.2697   	49.165894   
 1405 	34.2941   	48.303349   
 1406 	34.3185   	48.015873   
 1407 	34.3429   	48.015873   
 1408 	34.3674   	47.872074   
 1409 	34.3918   	47.440922   
 1410 	34.4162   	47.584595   
 1411 	34.4406   	47.153320   
 1412 	34.4651   	46.937748   
 1413 	34.4895   	45.859619   
 1414 	34.5139   	46.218994   
 1415 	34.5383   	46.218994   
 1416 	34.5628   	45.931522   
 1417 	34.5872   	45.644047   
 1418 	34.6116   	44.853394   
 1419 	34.6361   	44.278320   
 1420 	34.6605   	44.494019   
 1421 	34.6849   	44.278320   
 1422 	34.7093   	43.415894   
 1423 	34.7338   	43.703373   
 1424 	34.7582   	43.343998   
 1425 	34.7826   	42.481445   
 1426 	34.8070   	42.193974   
 1427 	34.8315   	41.762699   
 1428 	34.8559   	41.475220   
 1429 	34.8803   	41.978397   
 1430 	34.9047   	41.115845   
 1431 	34.9292   	40.181519   
 1432 	34.9536   	40.181519   
 1433 	34.9780   	39.247070   
 1434 	35.0024   	38.672123   
 1435 	35.0269   	39.031498   
 1436 	35.0513   	37.450199   
 1437 	35.0757   	38.456543   
 1438 	35.1001   	37.234623   
 1439 	35.1246   	37.162724   
 1440 	35.1490   	37.522099   
 1441 	35.1734   	36.947144   
 1442 	35.1979   	36.300297   
 1443 	35.2223   	36.084595   
 1444 	35.2467   	36.947144   
 1445 	35.2711   	36.659668   
 1446 	35.2956   	36.731445   
 1447 	35.3200   	35.365849   
 1448 	35.3444   	35.581543   
 1449 	35.3688   	35.222168   
 1450 	35.3933   	35.006470   
 1451 	35.4177   	34.359623   
 1452 	35.4421   	33.784668   
 1453 	35.4665   	33.784668   
 1454 	35.4910   	33.784668   
 1455 	35.5154   	32.634647   
 1456 	35.5398   	32.994022   
 1457 	35.5642   	31.269047   
 1458 	35.5887   	30.909668   
 1459 	35.6131   	30.119020   
 1460 	35.6375   	30.190920   
 1461 	35.6619   	30.693974   
 1462 	35.6864   	29.903322   
 1463 	35.7108   	29.543947   
 1464 	35.7352   	28.322145   
 1465 	35.7596   	28.250246   
 1466 	35.7841   	28.106447   
 1467 	35.8085   	27.315920   
 1468 	35.8329   	26.525269   
 1469 	35.8574   	27.028322   
 1470 	35.8818   	27.531496   
 1471 	35.9062   	26.453369   
 1472 	35.9306   	25.303347   
 1473 	35.9551   	24.440918   
 1474 	35.9795   	23.722170   
 1475 	36.0039   	23.218994   
 1476 	36.0283   	22.715822   
 1477 	36.0528   	22.644043   
 1478 	36.0772   	22.356447   
 1479 	36.1016   	21.853394   
 1480 	36.1260   	21.637697   
 1481 	36.1505   	21.278320   
 1482 	36.1749   	19.912720   
 1483 	36.1993   	19.984619   
 1484 	36.2237   	19.122070   
 1485 	36.2482   	19.265869   
 1486 	36.2726   	17.684572   
 1487 	36.2970   	17.468996   
 1488 	36.3214   	16.462769   
 1489 	36.3459   	15.528321   
 1490 	36.3703   	15.168945   
 1491 	36.3947   	15.528321   
 1492 	36.4191   	15.600221   
 1493 	36.4436   	15.744019   
 1494 	36.4680   	14.450196   
 1495 	36.4924   	14.306520   
 1496 	36.5169   	13.084596   
 1497 	36.5413   	13.443971   
 1498 	36.5657   	11.575195   
 1499 	36.5901   	11.359620   
 1500 	36.6146   	10.137696   
 1501 	36.6390   	9.562744    
 1502 	36.6634   	9.347168    
 1503 	36.6878   	9.490846    
 1504 	36.7123   	7.909668    
 1505 	36.7367   	6.903321    
 1506 	36.7611   	7.334595    
 1507 	36.7855   	6.400269    
 1508 	36.8100   	5.825256    
 1509 	36.8344   	4.244019    
 1510 	36.8588   	3.812744    
 1511 	36.8832   	3.453369    
 1512 	36.9077   	2.950256    
 1513 	36.9321   	1.584595    
 1514 	36.9565   	1.656494    
 1515 	36.9809   	0.937744    
 1516 	37.0054   	-0.931030   
 1517 	37.0298   	-1.793518   
 1518 	37.0542   	-1.505981   
 1519 	37.0787   	-2.440369   
 1520 	37.1031   	-2.368530   
 1521 	37.1275   	-2.727906   
 1522 	37.1519   	-3.159119   
 1523 	37.1764   	-5.027894   
 1524 	37.2008   	-5.315369   
 1525 	37.2252   	-6.106019   
 1526 	37.2496   	-7.112244   
 1527 	37.2741   	-7.902894   
 1528 	37.2985   	-8.118531   
 1529 	37.3229   	-9.771607   
 1530 	37.3473   	-10.921631  
 1531 	37.3718   	-11.856018  
 1532 	37.3962   	-12.071656  
 1533 	37.4206   	-12.718507  
 1534 	37.4450   	-14.371644  
 1535 	37.4695   	-14.802856  
 1536 	37.4939   	-15.665405  
 1537 	37.5183   	-15.952882  
 1538 	37.5427   	-16.671633  
 1539 	37.5672   	-16.959106  
 1540 	37.5916   	-18.396606  
 1541 	37.6160   	-19.906006  
 1542 	37.6404   	-19.330994  
 1543 	37.6649   	-20.337280  
 1544 	37.6893   	-20.912233  
 1545 	37.7137   	-21.918520  
 1546 	37.7382   	-20.481020  
 1547 	37.7626   	-22.493530  
 1548 	37.7870   	-22.493530  
 1549 	37.8114   	-22.924746  
 1550 	37.8359   	-23.068481  
 1551 	37.8603   	-23.212280  
 1552 	37.8847   	-23.643496  
 1553 	37.9091   	-25.080996  
 1554 	37.9336   	-26.015383  
 1555 	37.9580   	-26.374756  
 1556 	37.9824   	-27.165407  
 1557 	38.0068   	-27.812258  
 1558 	38.0313   	-28.387270  
 1559 	38.0557   	-29.249758  
 1560 	38.0801   	-29.465395  
 1561 	38.1045   	-29.393494  
 1562 	38.1290   	-30.759157  
 1563 	38.1534   	-31.477905  
 1564 	38.1778   	-31.837284  
 1565 	38.2022   	-32.268497  
 1566 	38.2267   	-33.490360  
 1567 	38.2511   	-33.202885  
 1568 	38.2755   	-33.418518  
 1569 	38.3000   	-33.202885  
 1570 	38.3244   	-33.849731  
 1571 	38.3488   	-33.921631  
 1572 	38.3732   	-33.777893  
 1573 	38.3977   	-34.281006  
 1574 	38.4221   	-35.287231  
 1575 	38.4465   	-36.221619  
 1576 	38.4709   	-36.221619  
 1577 	38.4954   	-37.587280  
 1578 	38.5198   	-37.731022  
 1579 	38.5442   	-38.018494  
 1580 	38.5686   	-39.455994  
 1581 	38.5931   	-40.102909  
 1582 	38.6175   	-40.462280  
 1583 	38.6419   	-41.540409  
 1584 	38.6663   	-41.109135  
 1585 	38.6908   	-41.181034  
 1586 	38.7152   	-41.324768  
 1587 	38.7396   	-42.187256  
 1588 	38.7640   	-42.977909  
 1589 	38.7885   	-43.121643  
 1590 	38.8129   	-42.906010  
 1591 	38.8373   	-44.918522  
 1592 	38.8617   	-44.343510  
 1593 	38.8862   	-44.559143  
 1594 	38.9106   	-45.349731  
 1595 	38.9350   	-45.134155  
 1596 	38.9595   	-46.284119  
 1597 	38.9839   	-47.218510  
 1598 	39.0083   	-47.505985  
 1599 	39.0327   	-48.009159  
 1600 	39.0572   	-48.152897  
 1601 	39.0816   	-49.949772  
 1602 	39.1060   	-50.237247  
 1603 	39.1304   	-50.309147  
 1604 	39.1549   	-50.165405  
 1605 	39.1793   	-50.884159  
 1606 	39.2037   	-51.315372  
 1607 	39.2281   	-52.321659  
 1608 	39.2526   	-52.249760  
 1609 	39.2770   	-52.752872  
 1610 	39.3014   	-53.615360  
 1611 	39.3258   	-53.759159  
 1612 	39.3503   	-53.830994  
 1613 	39.3747   	-53.399780  
 1614 	39.3991   	-53.543522  
 1615 	39.4235   	-54.693481  
 1616 	39.4480   	-55.484135  
 1617 	39.4724   	-55.771610  
 1618 	39.4968   	-56.634155  
 1619 	39.5213   	-57.281010  
 1620 	39.5457   	-58.143497  
 1621 	39.5701   	-57.927860  
 1622 	39.5945   	-57.927860  
 1623 	39.6190   	-58.934147  
 1624 	39.6434   	-58.790409  
 1625 	39.6678   	-59.149784  
 1626 	39.6922   	-58.718510  
 1627 	39.7167   	-58.574768  
 1628 	39.7411   	-58.431034  
 1629 	39.7655   	-58.790409  
 1630 	39.7899   	-58.359135  
 1631 	39.8144   	-58.934147  
 1632 	39.8388   	-59.868534  
 1633 	39.8632   	-59.077885  
 1634 	39.8876   	-59.221622  
 1635 	39.9121   	-59.149784  
 1636 	39.9365   	-59.365356  
 1637 	39.9609   	-58.574768  
 1638 	39.9853   	-59.293522  
 1639 	40.0098   	-59.365356  
 1640 	40.0342   	-59.868534  
 1641 	40.0586   	-59.868534  
 1642 	40.0830   	-59.796635  
 1643 	40.1075   	-59.293522  
 1644 	40.1319   	-60.227905  
 1645 	40.1563   	-60.802860  
 1646 	40.1808   	-61.593510  
 1647 	40.2052   	-61.809143  
 1648 	40.2296   	-62.096622  
 1649 	40.2540   	-62.240360  
 1650 	40.2785   	-61.952881  
 1651 	40.3029   	-62.168522  
 1652 	40.3273   	-62.024780  
 1653 	40.3517   	-62.240360  
 1654 	40.3762   	-62.815372  
 1655 	40.4006   	-63.534119  
 1656 	40.4250   	-63.821663  
 1657 	40.4494   	-63.677864  
 1658 	40.4739   	-63.965397  
 1659 	40.4983   	-63.749763  
 1660 	40.5227   	-64.252876  
 1661 	40.5471   	-64.252876  
 1662 	40.5716   	-64.540413  
 1663 	40.5960   	-63.462284  
 1664 	40.6204   	-64.540413  
 1665 	40.6448   	-64.252876  
 1666 	40.6693   	-64.037231  
 1667 	40.6937   	-65.187256  
 1668 	40.7181   	-65.402893  
 1669 	40.7425   	-64.899780  
 1670 	40.7670   	-64.540413  
 1671 	40.7914   	-64.612244  
 1672 	40.8158   	-64.109131  
 1673 	40.8403   	-64.468513  
 1674 	40.8647   	-65.043526  
 1675 	40.8891   	-64.540413  
 1676 	40.9135   	-65.546638  
 1677 	40.9380   	-65.618538  
 1678 	40.9624   	-65.690369  
 1679 	40.9868   	-65.474739  
 1680 	41.0112   	-66.265388  
 1681 	41.0357   	-66.049751  
 1682 	41.0601   	-65.259155  
 1683 	41.0845   	-66.768501  
 1684 	41.1089   	-66.337288  
 1685 	41.1334   	-65.834106  
 1686 	41.1578   	-66.912231  
 1687 	41.1822   	-66.409119  
 1688 	41.2066   	-66.265388  
 1689 	41.2311   	-66.481018  
 1690 	41.2555   	-67.271614  
 1691 	41.2799   	-67.702881  
 1692 	41.3043   	-67.199768  
 1693 	41.3288   	-66.912231  
 1694 	41.3532   	-68.349739  
 1695 	41.3776   	-67.487244  
 1696 	41.4021   	-67.415413  
 1697 	41.4265   	-66.624756  
 1698 	41.4509   	-67.774780  
 1699 	41.4753   	-67.415413  
 1700 	41.4998   	-66.768501  
 1701 	41.5242   	-67.630981  
 1702 	41.5486   	-67.918526  
 1703 	41.5730   	-66.840401  
 1704 	41.5975   	-67.630981  
 1705 	41.6219   	-67.990356  
 1706 	41.6463   	-67.559143  
 1707 	41.6707   	-66.984131  
 1708 	41.6952   	-67.990356  
 1709 	41.7196   	-67.774780  
 1710 	41.7440   	-66.696655  
 1711 	41.7684   	-68.062256  
 1712 	41.7929   	-67.702881  
 1713 	41.8173   	-67.918526  
 1714 	41.8417   	-67.630981  
 1715 	41.8661   	-67.127869  
 1716 	41.8906   	-67.487244  
 1717 	41.9150   	-67.774780  
 1718 	41.9394   	-67.630981  
 1719 	41.9638   	-67.559143  
 1720 	41.9883   	-67.056030  
 1721 	42.0127   	-67.702881  
 1722 	42.0371   	-67.630981  
 1723 	42.0616   	-68.781006  
 1724 	42.0860   	-67.846626  
 1725 	42.1104   	-67.559143  
 1726 	42.1348   	-68.493538  
 1727 	42.1593   	-67.199768  
 1728 	42.1837   	-67.271614  
 1729 	42.2081   	-66.624756  
 1730 	42.2325   	-67.559143  
 1731 	42.2570   	-67.343513  
 1732 	42.2814   	-68.062256  
 1733 	42.3058   	-68.277893  
 1734 	42.3302   	-68.205994  
 1735 	42.3547   	-68.277893  
 1736 	42.3791   	-68.781006  
 1737 	42.4035   	-69.212288  
 1738 	42.4279   	-68.062256  
 1739 	42.4524   	-68.205994  
 1740 	42.4768   	-68.493538  
 1741 	42.5012   	-68.349739  
 1742 	42.5256   	-67.918526  
 1743 	42.5501   	-68.205994  
 1744 	42.5745   	-68.421638  
 1745 	42.5989   	-68.349739  
 1746 	42.6234   	-68.924751  
 1747 	42.6478   	-68.996643  
 1748 	42.6722   	-67.846626  
 1749 	42.6966   	-68.134163  
 1750 	42.7211   	-67.918526  
 1751 	42.7455   	-68.205994  
 1752 	42.7699   	-67.774780  
 1753 	42.7943   	-67.415413  
 1754 	42.8188   	-67.559143  
 1755 	42.8432   	-68.062256  
 1756 	42.8676   	-67.990356  
 1757 	42.8920   	-68.421638  
 1758 	42.9165   	-68.996643  
 1759 	42.9409   	-69.212288  
 1760 	42.9653   	-69.068489  
 1761 	42.9897   	-69.284119  
 1762 	43.0142   	-70.290413  
 1763 	43.0386   	-69.068489  
 1764 	43.0630   	-69.140388  
 1765 	43.0874   	-68.996643  
 1766 	43.1119   	-67.702881  
 1767 	43.1363   	-67.056030  
 1768 	43.1607   	-67.918526  
 1769 	43.1851   	-67.271614  
 1770 	43.2096   	-67.127869  
 1771 	43.2340   	-67.415413  
 1772 	43.2584   	-66.481018  
 1773 	43.2829   	-67.630981  
 1774 	43.3073   	-68.205994  
 1775 	43.3317   	-68.421638  
 1776 	43.3561   	-68.349739  
 1777 	43.3806   	-67.774780  
 1778 	43.4050   	-67.271614  
 1779 	43.4294   	-68.349739  
 1780 	43.4538   	-68.062256  
 1781 	43.4783   	-68.421638  
 1782 	43.5027   	-68.781006  
 1783 	43.5271   	-68.565376  
 1784 	43.5515   	-68.493538  
 1785 	43.5760   	-68.996643  
 1786 	43.6004   	-68.421638  
 1787 	43.6248   	-69.140388  
 1788 	43.6492   	-68.349739  
 1789 	43.6737   	-67.774780  
 1790 	43.6981   	-68.709106  
 1791 	43.7225   	-68.709106  
 1792 	43.7469   	-67.774780  
 1793 	43.7714   	-67.199768  
 1794 	43.7958   	-67.990356  
 1795 	43.8202   	-68.565376  
 1796 	43.8447   	-69.212288  
 1797 	43.8691   	-69.284119  
 1798 	43.8935   	-68.924751  
 1799 	43.9179   	-68.134163  
 1800 	43.9424   	-67.918526  
 1801 	43.9668   	-68.565376  
 1802 	43.9912   	-68.565376  
 1803 	44.0156   	-68.709106  
 1804 	44.0401   	-68.062256  
 1805 	44.0645   	-68.205994  
 1806 	44.0889   	-68.349739  
 1807 	44.1133   	-68.205994  
 1808 	44.1378   	-68.709106  
 1809 	44.1622   	-67.846626  
 1810 	44.1866   	-68.709106  
 1811 	44.2110   	-68.134163  
 1812 	44.2355   	-67.990356  
 1813 	44.2599   	-67.702881  
 1814 	44.2843   	-66.624756  
 1815 	44.3087   	-67.630981  
 1816 	44.3332   	-66.409119  
 1817 	44.3576   	-66.265388  
 1818 	44.3820   	-65.546638  
 1819 	44.4064   	-64.899780  
 1820 	44.4309   	-63.965397  
 1821 	44.4553   	-63.318485  
 1822 	44.4797   	-62.815372  
 1823 	44.5042   	-60.659119  
 1824 	44.5286   	-58.502869  
 1825 	44.5530   	-56.490360  
 1826 	44.5774   	-51.746647  
 1827 	44.6019   	-47.937260  
 1828 	44.6263   	-45.781010  
 1829 	44.6507   	-43.481022  
 1830 	44.6751   	-42.618534  
 1831 	44.6996   	-42.474735  
 1832 	44.7240   	-41.540409  
 1833 	44.7484   	-42.043522  
 1834 	44.7728   	-42.474735  
 1835 	44.7973   	-43.481022  
 1836 	44.8217   	-43.912235  
 1837 	44.8461   	-45.709110  
 1838 	44.8705   	-46.068485  
 1839 	44.8950   	-47.218510  
 1840 	44.9194   	-49.015385  
 1841 	44.9438   	-49.662231  
 1842 	44.9682   	-50.309147  
 1843 	44.9927   	-51.027893  
 1844 	45.0171   	-52.321659  
 1845 	45.0415   	-53.615360  
 1846 	45.0659   	-54.334110  
 1847 	45.0904   	-55.484135  
 1848 	45.1148   	-56.777897  
 1849 	45.1392   	-57.352909  
 1850 	45.1637   	-57.137268  
 1851 	45.1881   	-58.143497  
 1852 	45.2125   	-58.502869  
 1853 	45.2369   	-58.790409  
 1854 	45.2614   	-60.227905  
 1855 	45.2858   	-60.587284  
 1856 	45.3102   	-61.377876  
 1857 	45.3346   	-61.377876  
 1858 	45.3591   	-61.737244  
 1859 	45.3835   	-62.312260  
 1860 	45.4079   	-62.096622  
 1861 	45.4323   	-63.246647  
 1862 	45.4568   	-63.246647  
 1863 	45.4812   	-63.390385  
 1864 	45.5056   	-63.031006  
 1865 	45.5300   	-62.743534  
 1866 	45.5545   	-63.606018  
 1867 	45.5789   	-64.684143  
 1868 	45.6033   	-65.402893  
 1869 	45.6277   	-64.827881  
 1870 	45.6522   	-64.827881  
 1871 	45.6766   	-65.330994  
 1872 	45.7010   	-65.906006  
 1873 	45.7255   	-66.337288  
 1874 	45.7499   	-66.049751  
 1875 	45.7743   	-66.912231  
 1876 	45.7987   	-66.840401  
 1877 	45.8232   	-66.768501  
 1878 	45.8476   	-67.487244  
 1879 	45.8720   	-67.559143  
 1880 	45.8964   	-67.271614  
 1881 	45.9209   	-67.127869  
 1882 	45.9453   	-67.630981  
 1883 	45.9697   	-67.702881  
 1884 	45.9941   	-68.781006  
 1885 	46.0186   	-67.990356  
 1886 	46.0430   	-68.349739  
 1887 	46.0674   	-68.277893  
 1888 	46.0918   	-68.205994  
 1889 	46.1163   	-68.277893  
 1890 	46.1407   	-67.918526  
 1891 	46.1651   	-68.924751  
 1892 	46.1895   	-68.493538  
 1893 	46.2140   	-68.062256  
 1894 	46.2384   	-67.559143  
 1895 	46.2628   	-67.846626  
 1896 	46.2872   	-66.912231  
 1897 	46.3117   	-67.918526  
 1898 	46.3361   	-67.487244  
 1899 	46.3605   	-68.277893  
 1900 	46.3850   	-69.427856  
 1901 	46.4094   	-69.284119  
 1902 	46.4338   	-69.787231  
 1903 	46.4582   	-69.212288  
 1904 	46.4827   	-68.996643  
 1905 	46.5071   	-68.493538  
 1906 	46.5315   	-69.715401  
 1907 	46.5559   	-70.002869  
 1908 	46.5804   	-69.284119  
 1909 	46.6048   	-69.571655  
 1910 	46.6292   	-69.427856  
 1911 	46.6536   	-69.859131  
 1912 	46.6781   	-70.721626  
 1913 	46.7025   	-70.002869  
 1914 	46.7269   	-70.074768  
 1915 	46.7513   	-70.146614  
 1916 	46.7758   	-69.859131  
 1917 	46.8002   	-69.715401  
 1918 	46.8246   	-69.715401  
 1919 	46.8490   	-70.074768  
 1920 	46.8735   	-69.571655  
 1921 	46.8979   	-69.212288  
 1922 	46.9223   	-69.787231  
 1923 	46.9468   	-70.002869  
 1924 	46.9712   	-69.859131  
 1925 	46.9956   	-69.571655  
 1926 	47.0200   	-69.859131  
 1927 	47.0445   	-69.859131  
 1928 	47.0689   	-68.781006  
 1929 	47.0933   	-68.924751  
 1930 	47.1177   	-68.205994  
 1931 	47.1422   	-67.630981  
 1932 	47.1666   	-67.702881  
 1933 	47.1910   	-67.127869  
 1934 	47.2154   	-66.624756  
 1935 	47.2399   	-67.702881  
 1936 	47.2643   	-66.984131  
 1937 	47.2887   	-68.421638  
 1938 	47.3131   	-69.068489  
 1939 	47.3376   	-69.715401  
 1940 	47.3620   	-69.356018  
 1941 	47.3864   	-69.499756  
 1942 	47.4108   	-68.277893  
 1943 	47.4353   	-68.709106  
 1944 	47.4597   	-69.427856  
 1945 	47.4841   	-69.356018  
 1946 	47.5085   	-70.290413  
 1947 	47.5330   	-69.571655  
 1948 	47.5574   	-69.356018  
 1949 	47.5818   	-70.434151  
 1950 	47.6063   	-69.931030  
 1951 	47.6307   	-69.715401  
 1952 	47.6551   	-70.505981  
 1953 	47.6795   	-70.290413  
 1954 	47.7040   	-70.362244  
 1955 	47.7284   	-70.649780  
 1956 	47.7528   	-70.649780  
 1957 	47.7772   	-70.793526  
 1958 	47.8017   	-71.799744  
 1959 	47.8261   	-70.937263  
 1960 	47.8505   	-70.505981  
 1961 	47.8749   	-69.787231  
 1962 	47.8994   	-70.002869  
 1963 	47.9238   	-70.505981  
 1964 	47.9482   	-70.290413  
 1965 	47.9726   	-69.859131  
 1966 	47.9971   	-69.931030  
 1967 	48.0215   	-70.721626  
 1968 	48.0459   	-71.080994  
 1969 	48.0703   	-71.440376  
 1970 	48.0948   	-70.865364  
 1971 	48.1192   	-70.146614  
 1972 	48.1436   	-70.505981  
 1973 	48.1681   	-71.296631  
 1974 	48.1925   	-71.296631  
 1975 	48.2169   	-71.512276  
 1976 	48.2413   	-70.793526  
 1977 	48.2658   	-71.440376  
 1978 	48.2902   	-70.649780  
 1979 	48.3146   	-69.931030  
 1980 	48.3390   	-69.427856  
 1981 	48.3635   	-69.284119  
 1982 	48.3879   	-70.002869  
 1983 	48.4123   	-69.931030  
 1984 	48.4367   	-70.865364  
 1985 	48.4612   	-70.937263  
 1986 	48.4856   	-71.296631  
 1987 	48.5100   	-72.015388  
 1988 	48.5344   	-71.080994  
 1989 	48.5589   	-71.152893  
 1990 	48.5833   	-70.865364  
 1991 	48.6077   	-70.002869  
 1992 	48.6321   	-70.577881  
 1993 	48.6566   	-70.434151  
 1994 	48.6810   	-70.434151  
 1995 	48.7054   	-70.793526  
 1996 	48.7298   	-70.865364  
 1997 	48.7543   	-70.505981  
 1998 	48.7787   	-71.584106  
 1999 	48.8031   	-70.505981  
 2000 	48.8276   	-71.152893  
 2001 	48.8520   	-70.505981  
 2002 	48.8764   	-71.152893  
 2003 	48.9008   	-70.937263  
 2004 	48.9253   	-70.218513  
 2005 	48.9497   	-70.290413  
 2006 	48.9741   	-70.937263  
 2007 	48.9985   	-70.721626  
 2008 	49.0230   	-71.152893  
 2009 	49.0474   	-71.656006  
 2010 	49.0718   	-72.015388  
 2011 	49.0962   	-71.368530  
 2012 	49.1207   	-72.231018  
 2013 	49.1451   	-72.806038  
 2014 	49.1695   	-72.877869  
 2015 	49.1939   	-72.446655  
 2016 	49.2184   	-72.302856  
 2017 	49.2428   	-72.302856  
 2018 	49.2672   	-71.727905  
 2019 	49.2916   	-72.015388  
 2020 	49.3161   	-71.727905  
 2021 	49.3405   	-71.152893  
 2022 	49.3649   	-71.152893  
 2023 	49.3893   	-71.296631  
 2024 	49.4138   	-71.656006  
 2025 	49.4382   	-71.512276  
 2026 	49.4626   	-72.087288  
 2027 	49.4871   	-71.296631  
 2028 	49.5115   	-72.087288  
 2029 	49.5359   	-72.159119  
 2030 	49.5603   	-72.159119  
 2031 	49.5848   	-72.015388  
 2032 	49.6092   	-72.087288  
 2033 	49.6336   	-71.943489  
 2034 	49.6580   	-71.656006  
 2035 	49.6825   	-71.799744  
 2036 	49.7069   	-71.799744  
 2037 	49.7313   	-71.440376  
 2038 	49.7557   	-70.793526  
 2039 	49.7802   	-71.152893  
 2040 	49.8046   	-70.434151  
 2041 	49.8290   	-70.865364  
 2042 	49.8534   	-70.290413  
 2043 	49.8779   	-71.584106  
 2044 	49.9023   	-70.865364  
 2045 	49.9267   	-71.656006  
 2046 	49.9511   	-72.015388  
 2047 	49.9756   	-71.368530  
 2048 	50.0000   	-71.871643  

