
      	X(nS)     	Ch1(mV)      


 1    	0.0000    	-82.929436  
 2    	0.0449    	-83.576294  
 3    	0.0899    	-83.216919  
 4    	0.1348    	-83.648186  
 5    	0.1798    	-84.582520  
 6    	0.2247    	-84.510674  
 7    	0.2697    	-83.935669  
 8    	0.3146    	-83.863770  
 9    	0.3596    	-83.216919  
 10   	0.4045    	-83.935669  
 11   	0.4494    	-83.648186  
 12   	0.4944    	-83.432549  
 13   	0.5393    	-82.498161  
 14   	0.5843    	-81.995049  
 15   	0.6292    	-82.138786  
 16   	0.6742    	-81.491936  
 17   	0.7191    	-83.216919  
 18   	0.7640    	-82.282524  
 19   	0.8090    	-83.432549  
 20   	0.8539    	-83.145020  
 21   	0.8989    	-82.785645  
 22   	0.9438    	-83.145020  
 23   	0.9888    	-83.648186  
 24   	1.0337    	-83.432549  
 25   	1.0787    	-83.073174  
 26   	1.1236    	-83.001274  
 27   	1.1685    	-81.995049  
 28   	1.2135    	-82.498161  
 29   	1.2584    	-82.929436  
 30   	1.3034    	-82.426270  
 31   	1.3483    	-82.210686  
 32   	1.3933    	-82.426270  
 33   	1.4382    	-82.426270  
 34   	1.4831    	-83.216919  
 35   	1.5281    	-84.151299  
 36   	1.5730    	-83.648186  
 37   	1.6180    	-83.863770  
 38   	1.6629    	-83.360649  
 39   	1.7079    	-83.145020  
 40   	1.7528    	-83.360649  
 41   	1.7978    	-83.360649  
 42   	1.8427    	-83.935669  
 43   	1.8876    	-84.726311  
 44   	1.9326    	-83.720024  
 45   	1.9775    	-84.654419  
 46   	2.0225    	-84.295044  
 47   	2.0674    	-82.857544  
 48   	2.1124    	-83.576294  
 49   	2.1573    	-83.073174  
 50   	2.2022    	-83.360649  
 51   	2.2472    	-83.360649  
 52   	2.2921    	-83.791924  
 53   	2.3371    	-84.438774  
 54   	2.3820    	-84.366936  
 55   	2.4270    	-83.001274  
 56   	2.4719    	-83.360649  
 57   	2.5169    	-83.360649  
 58   	2.5618    	-83.145020  
 59   	2.6067    	-82.785645  
 60   	2.6517    	-83.360649  
 61   	2.6966    	-82.929436  
 62   	2.7416    	-83.504395  
 63   	2.7865    	-83.863770  
 64   	2.8315    	-83.648186  
 65   	2.8764    	-84.295044  
 66   	2.9213    	-83.648186  
 67   	2.9663    	-83.001274  
 68   	3.0112    	-83.001274  
 69   	3.0562    	-83.504395  
 70   	3.1011    	-83.360649  
 71   	3.1461    	-83.576294  
 72   	3.1910    	-84.510674  
 73   	3.2360    	-85.301270  
 74   	3.2809    	-84.223145  
 75   	3.3258    	-83.935669  
 76   	3.3708    	-84.654419  
 77   	3.4157    	-83.432549  
 78   	3.4607    	-82.785645  
 79   	3.5056    	-83.432549  
 80   	3.5506    	-83.360649  
 81   	3.5955    	-83.360649  
 82   	3.6404    	-83.216919  
 83   	3.6854    	-83.145020  
 84   	3.7303    	-84.079399  
 85   	3.7753    	-84.151299  
 86   	3.8202    	-83.863770  
 87   	3.8652    	-84.007561  
 88   	3.9101    	-83.216919  
 89   	3.9551    	-81.851311  
 90   	4.0000    	-82.210686  
 91   	4.0449    	-82.785645  
 92   	4.0899    	-83.360649  
 93   	4.1348    	-83.791924  
 94   	4.1798    	-84.151299  
 95   	4.2247    	-83.216919  
 96   	4.2697    	-83.360649  
 97   	4.3146    	-84.151299  
 98   	4.3596    	-84.151299  
 99   	4.4045    	-83.504395  
 100  	4.4494    	-83.791924  
 101  	4.4944    	-84.295044  
 102  	4.5393    	-83.504395  
 103  	4.5843    	-83.863770  
 104  	4.6292    	-83.576294  
 105  	4.6742    	-83.001274  
 106  	4.7191    	-84.079399  
 107  	4.7640    	-82.785645  
 108  	4.8090    	-82.426270  
 109  	4.8539    	-82.066895  
 110  	4.8989    	-82.857544  
 111  	4.9438    	-83.001274  
 112  	4.9888    	-83.145020  
 113  	5.0337    	-83.791924  
 114  	5.0787    	-84.366936  
 115  	5.1236    	-85.085693  
 116  	5.1685    	-84.654419  
 117  	5.2135    	-84.438774  
 118  	5.2584    	-85.301270  
 119  	5.3034    	-85.445068  
 120  	5.3483    	-85.013794  
 121  	5.3933    	-84.726311  
 122  	5.4382    	-83.432549  
 123  	5.4831    	-83.432549  
 124  	5.5281    	-83.576294  
 125  	5.5730    	-82.857544  
 126  	5.6180    	-83.360649  
 127  	5.6629    	-83.073174  
 128  	5.7079    	-83.648186  
 129  	5.7528    	-84.582520  
 130  	5.7978    	-84.079399  
 131  	5.8427    	-85.085693  
 132  	5.8876    	-85.157524  
 133  	5.9326    	-84.079399  
 134  	5.9775    	-83.720024  
 135  	6.0225    	-83.504395  
 136  	6.0674    	-83.576294  
 137  	6.1124    	-84.007561  
 138  	6.1573    	-84.223145  
 139  	6.2022    	-84.510674  
 140  	6.2472    	-84.510674  
 141  	6.2921    	-84.726311  
 142  	6.3371    	-84.582520  
 143  	6.3820    	-84.510674  
 144  	6.4270    	-84.654419  
 145  	6.4719    	-85.085693  
 146  	6.5169    	-83.863770  
 147  	6.5618    	-84.007561  
 148  	6.6067    	-83.791924  
 149  	6.6517    	-83.648186  
 150  	6.6966    	-83.863770  
 151  	6.7416    	-84.223145  
 152  	6.7865    	-84.007561  
 153  	6.8315    	-84.366936  
 154  	6.8764    	-84.366936  
 155  	6.9213    	-83.791924  
 156  	6.9663    	-83.935669  
 157  	7.0112    	-82.929436  
 158  	7.0562    	-83.504395  
 159  	7.1011    	-84.438774  
 160  	7.1461    	-84.151299  
 161  	7.1910    	-83.935669  
 162  	7.2360    	-84.726311  
 163  	7.2809    	-83.288811  
 164  	7.3258    	-84.007561  
 165  	7.3708    	-83.791924  
 166  	7.4157    	-83.432549  
 167  	7.4607    	-83.145020  
 168  	7.5056    	-82.857544  
 169  	7.5506    	-83.648186  
 170  	7.5955    	-83.576294  
 171  	7.6404    	-83.935669  
 172  	7.6854    	-84.798149  
 173  	7.7303    	-83.216919  
 174  	7.7753    	-82.570061  
 175  	7.8202    	-83.216919  
 176  	7.8652    	-83.935669  
 177  	7.9101    	-83.935669  
 178  	7.9551    	-83.863770  
 179  	8.0000    	-83.504395  
 180  	8.0449    	-83.504395  
 181  	8.0899    	-84.079399  
 182  	8.1348    	-83.863770  
 183  	8.1798    	-83.288811  
 184  	8.2247    	-82.929436  
 185  	8.2697    	-83.432549  
 186  	8.3146    	-82.713799  
 187  	8.3596    	-82.713799  
 188  	8.4045    	-83.360649  
 189  	8.4494    	-83.576294  
 190  	8.4944    	-82.929436  
 191  	8.5393    	-83.504395  
 192  	8.5843    	-83.360649  
 193  	8.6292    	-83.791924  
 194  	8.6742    	-83.432549  
 195  	8.7191    	-83.288811  
 196  	8.7640    	-83.216919  
 197  	8.8090    	-83.216919  
 198  	8.8539    	-82.570061  
 199  	8.8989    	-83.001274  
 200  	8.9438    	-82.282524  
 201  	8.9888    	-82.641899  
 202  	9.0337    	-82.570061  
 203  	9.0787    	-82.570061  
 204  	9.1236    	-83.216919  
 205  	9.1685    	-83.935669  
 206  	9.2135    	-84.870049  
 207  	9.2584    	-84.726311  
 208  	9.3034    	-84.438774  
 209  	9.3483    	-85.229424  
 210  	9.3933    	-84.726311  
 211  	9.4382    	-84.151299  
 212  	9.4831    	-83.288811  
 213  	9.5281    	-83.001274  
 214  	9.5730    	-83.145020  
 215  	9.6180    	-83.935669  
 216  	9.6629    	-84.223145  
 217  	9.7079    	-84.366936  
 218  	9.7528    	-84.223145  
 219  	9.7978    	-84.007561  
 220  	9.8427    	-82.857544  
 221  	9.8876    	-83.288811  
 222  	9.9326    	-83.288811  
 223  	9.9775    	-83.863770  
 224  	10.0225   	-83.576294  
 225  	10.0674   	-82.857544  
 226  	10.1124   	-83.001274  
 227  	10.1573   	-82.641899  
 228  	10.2022   	-83.576294  
 229  	10.2472   	-83.001274  
 230  	10.2921   	-81.923149  
 231  	10.3371   	-82.641899  
 232  	10.3820   	-83.073174  
 233  	10.4270   	-82.857544  
 234  	10.4719   	-81.923149  
 235  	10.5169   	-81.779411  
 236  	10.5618   	-82.138786  
 237  	10.6067   	-82.641899  
 238  	10.6517   	-83.216919  
 239  	10.6966   	-82.498161  
 240  	10.7416   	-82.713799  
 241  	10.7865   	-83.360649  
 242  	10.8315   	-82.857544  
 243  	10.8764   	-82.282524  
 244  	10.9213   	-81.923149  
 245  	10.9663   	-82.498161  
 246  	11.0112   	-82.641899  
 247  	11.0562   	-82.713799  
 248  	11.1011   	-82.641899  
 249  	11.1461   	-83.073174  
 250  	11.1910   	-82.498161  
 251  	11.2360   	-82.570061  
 252  	11.2809   	-82.066895  
 253  	11.3258   	-82.210686  
 254  	11.3708   	-83.648186  
 255  	11.4157   	-82.929436  
 256  	11.4607   	-82.426270  
 257  	11.5056   	-82.498161  
 258  	11.5506   	-82.570061  
 259  	11.5955   	-83.073174  
 260  	11.6404   	-83.935669  
 261  	11.6854   	-84.295044  
 262  	11.7303   	-84.079399  
 263  	11.7753   	-84.438774  
 264  	11.8202   	-83.648186  
 265  	11.8652   	-83.360649  
 266  	11.9101   	-83.720024  
 267  	11.9551   	-83.935669  
 268  	12.0000   	-83.791924  
 269  	12.0449   	-83.073174  
 270  	12.0899   	-83.216919  
 271  	12.1348   	-83.288811  
 272  	12.1798   	-82.929436  
 273  	12.2247   	-83.504395  
 274  	12.2697   	-83.145020  
 275  	12.3146   	-82.713799  
 276  	12.3596   	-83.791924  
 277  	12.4045   	-82.713799  
 278  	12.4494   	-83.863770  
 279  	12.4944   	-83.648186  
 280  	12.5393   	-83.073174  
 281  	12.5843   	-83.360649  
 282  	12.6292   	-82.641899  
 283  	12.6742   	-83.145020  
 284  	12.7191   	-83.360649  
 285  	12.7640   	-82.857544  
 286  	12.8090   	-83.145020  
 287  	12.8539   	-82.857544  
 288  	12.8989   	-83.791924  
 289  	12.9438   	-84.007561  
 290  	12.9888   	-83.432549  
 291  	13.0337   	-83.288811  
 292  	13.0787   	-82.785645  
 293  	13.1236   	-82.426270  
 294  	13.1685   	-82.138786  
 295  	13.2135   	-82.785645  
 296  	13.2584   	-82.929436  
 297  	13.3034   	-82.498161  
 298  	13.3483   	-82.857544  
 299  	13.3933   	-82.857544  
 300  	13.4382   	-81.779411  
 301  	13.4831   	-82.354424  
 302  	13.5281   	-83.073174  
 303  	13.5730   	-82.282524  
 304  	13.6180   	-82.498161  
 305  	13.6629   	-83.360649  
 306  	13.7079   	-83.288811  
 307  	13.7528   	-83.145020  
 308  	13.7978   	-83.360649  
 309  	13.8427   	-83.576294  
 310  	13.8876   	-82.713799  
 311  	13.9326   	-82.641899  
 312  	13.9775   	-82.785645  
 313  	14.0225   	-82.929436  
 314  	14.0674   	-82.138786  
 315  	14.1124   	-83.073174  
 316  	14.1573   	-82.857544  
 317  	14.2022   	-82.354424  
 318  	14.2472   	-82.713799  
 319  	14.2921   	-81.995049  
 320  	14.3371   	-81.635674  
 321  	14.3820   	-82.138786  
 322  	14.4270   	-82.282524  
 323  	14.4719   	-81.779411  
 324  	14.5169   	-83.288811  
 325  	14.5618   	-83.288811  
 326  	14.6067   	-82.066895  
 327  	14.6517   	-81.923149  
 328  	14.6966   	-81.276299  
 329  	14.7416   	-81.851311  
 330  	14.7865   	-82.641899  
 331  	14.8315   	-82.641899  
 332  	14.8764   	-81.635674  
 333  	14.9213   	-81.923149  
 334  	14.9663   	-82.426270  
 335  	15.0112   	-82.354424  
 336  	15.0562   	-83.504395  
 337  	15.1011   	-83.432549  
 338  	15.1461   	-83.145020  
 339  	15.1910   	-83.791924  
 340  	15.2360   	-83.288811  
 341  	15.2809   	-83.720024  
 342  	15.3258   	-84.510674  
 343  	15.3708   	-84.798149  
 344  	15.4157   	-84.438774  
 345  	15.4607   	-84.510674  
 346  	15.5056   	-83.935669  
 347  	15.5506   	-84.007561  
 348  	15.5955   	-82.929436  
 349  	15.6404   	-82.570061  
 350  	15.6854   	-83.288811  
 351  	15.7303   	-82.713799  
 352  	15.7753   	-82.929436  
 353  	15.8202   	-82.857544  
 354  	15.8652   	-83.145020  
 355  	15.9101   	-83.432549  
 356  	15.9551   	-82.713799  
 357  	16.0000   	-83.648186  
 358  	16.0449   	-84.007561  
 359  	16.0899   	-84.295044  
 360  	16.1348   	-84.798149  
 361  	16.1798   	-84.582520  
 362  	16.2247   	-82.857544  
 363  	16.2697   	-83.001274  
 364  	16.3146   	-83.001274  
 365  	16.3596   	-83.432549  
 366  	16.4045   	-83.576294  
 367  	16.4494   	-83.720024  
 368  	16.4944   	-83.648186  
 369  	16.5393   	-83.791924  
 370  	16.5843   	-83.720024  
 371  	16.6292   	-83.504395  
 372  	16.6742   	-83.863770  
 373  	16.7191   	-82.929436  
 374  	16.7640   	-84.438774  
 375  	16.8090   	-83.145020  
 376  	16.8539   	-83.073174  
 377  	16.8989   	-82.713799  
 378  	16.9438   	-82.138786  
 379  	16.9888   	-82.570061  
 380  	17.0337   	-83.360649  
 381  	17.0787   	-83.360649  
 382  	17.1236   	-84.007561  
 383  	17.1685   	-82.857544  
 384  	17.2135   	-83.073174  
 385  	17.2584   	-83.001274  
 386  	17.3034   	-82.929436  
 387  	17.3483   	-82.641899  
 388  	17.3933   	-82.426270  
 389  	17.4382   	-83.360649  
 390  	17.4831   	-82.713799  
 391  	17.5281   	-83.648186  
 392  	17.5730   	-83.935669  
 393  	17.6180   	-84.223145  
 394  	17.6629   	-83.935669  
 395  	17.7079   	-84.079399  
 396  	17.7528   	-83.432549  
 397  	17.7978   	-83.288811  
 398  	17.8427   	-83.216919  
 399  	17.8876   	-83.863770  
 400  	17.9326   	-83.073174  
 401  	17.9775   	-82.785645  
 402  	18.0225   	-82.282524  
 403  	18.0674   	-82.426270  
 404  	18.1124   	-82.282524  
 405  	18.1573   	-82.426270  
 406  	18.2022   	-83.073174  
 407  	18.2472   	-82.713799  
 408  	18.2921   	-82.282524  
 409  	18.3371   	-82.857544  
 410  	18.3820   	-83.001274  
 411  	18.4270   	-83.720024  
 412  	18.4719   	-84.007561  
 413  	18.5169   	-84.366936  
 414  	18.5618   	-84.295044  
 415  	18.6067   	-83.648186  
 416  	18.6517   	-83.648186  
 417  	18.6966   	-82.785645  
 418  	18.7416   	-82.713799  
 419  	18.7865   	-82.570061  
 420  	18.8315   	-82.713799  
 421  	18.8764   	-82.713799  
 422  	18.9213   	-82.210686  
 423  	18.9663   	-81.779411  
 424  	19.0112   	-83.216919  
 425  	19.0562   	-82.138786  
 426  	19.1011   	-82.785645  
 427  	19.1461   	-81.635674  
 428  	19.1910   	-81.491936  
 429  	19.2360   	-81.491936  
 430  	19.2809   	-81.923149  
 431  	19.3258   	-81.851311  
 432  	19.3708   	-82.138786  
 433  	19.4157   	-82.641899  
 434  	19.4607   	-82.498161  
 435  	19.5056   	-82.570061  
 436  	19.5506   	-82.570061  
 437  	19.5955   	-82.857544  
 438  	19.6404   	-82.857544  
 439  	19.6854   	-83.216919  
 440  	19.7303   	-82.929436  
 441  	19.7753   	-83.576294  
 442  	19.8202   	-82.785645  
 443  	19.8652   	-83.216919  
 444  	19.9101   	-82.570061  
 445  	19.9551   	-83.216919  
 446  	20.0000   	-82.641899  
 447  	20.0449   	-82.785645  
 448  	20.0899   	-83.935669  
 449  	20.1348   	-83.720024  
 450  	20.1798   	-83.001274  
 451  	20.2247   	-82.929436  
 452  	20.2697   	-83.504395  
 453  	20.3146   	-84.726311  
 454  	20.3596   	-84.295044  
 455  	20.4045   	-83.576294  
 456  	20.4494   	-83.863770  
 457  	20.4944   	-83.648186  
 458  	20.5393   	-84.007561  
 459  	20.5843   	-84.295044  
 460  	20.6292   	-83.360649  
 461  	20.6742   	-83.863770  
 462  	20.7191   	-84.366936  
 463  	20.7640   	-82.929436  
 464  	20.8090   	-83.073174  
 465  	20.8539   	-82.426270  
 466  	20.8989   	-82.426270  
 467  	20.9438   	-82.570061  
 468  	20.9888   	-83.001274  
 469  	21.0337   	-83.288811  
 470  	21.0787   	-83.360649  
 471  	21.1236   	-84.007561  
 472  	21.1685   	-83.648186  
 473  	21.2135   	-82.282524  
 474  	21.2584   	-81.851311  
 475  	21.3034   	-82.929436  
 476  	21.3483   	-83.360649  
 477  	21.3933   	-82.498161  
 478  	21.4382   	-82.785645  
 479  	21.4831   	-83.216919  
 480  	21.5281   	-83.504395  
 481  	21.5730   	-83.432549  
 482  	21.6180   	-82.570061  
 483  	21.6629   	-83.216919  
 484  	21.7079   	-83.720024  
 485  	21.7528   	-83.720024  
 486  	21.7978   	-83.720024  
 487  	21.8427   	-84.079399  
 488  	21.8876   	-83.720024  
 489  	21.9326   	-82.713799  
 490  	21.9775   	-83.360649  
 491  	22.0225   	-83.935669  
 492  	22.0674   	-83.648186  
 493  	22.1124   	-82.354424  
 494  	22.1573   	-83.073174  
 495  	22.2022   	-83.145020  
 496  	22.2472   	-83.576294  
 497  	22.2921   	-82.641899  
 498  	22.3371   	-82.857544  
 499  	22.3820   	-83.216919  
 500  	22.4270   	-82.929436  
 501  	22.4719   	-83.216919  
 502  	22.5169   	-83.001274  
 503  	22.5618   	-82.498161  
 504  	22.6067   	-83.720024  
 505  	22.6517   	-83.863770  
 506  	22.6966   	-83.504395  
 507  	22.7416   	-83.720024  
 508  	22.7865   	-84.007561  
 509  	22.8315   	-83.863770  
 510  	22.8764   	-82.570061  
 511  	22.9213   	-82.785645  
 512  	22.9663   	-83.576294  
 513  	23.0112   	-83.001274  
 514  	23.0562   	-83.001274  
 515  	23.1011   	-83.288811  
 516  	23.1461   	-83.145020  
 517  	23.1910   	-83.216919  
 518  	23.2360   	-83.791924  
 519  	23.2809   	-83.576294  
 520  	23.3258   	-82.929436  
 521  	23.3708   	-83.001274  
 522  	23.4157   	-82.641899  
 523  	23.4607   	-83.001274  
 524  	23.5056   	-82.498161  
 525  	23.5506   	-83.216919  
 526  	23.5955   	-83.791924  
 527  	23.6404   	-83.504395  
 528  	23.6854   	-82.498161  
 529  	23.7303   	-82.785645  
 530  	23.7753   	-82.641899  
 531  	23.8202   	-82.426270  
 532  	23.8652   	-82.641899  
 533  	23.9101   	-83.360649  
 534  	23.9551   	-83.145020  
 535  	24.0000   	-84.151299  
 536  	24.0449   	-83.432549  
 537  	24.0899   	-83.863770  
 538  	24.1348   	-83.576294  
 539  	24.1798   	-83.360649  
 540  	24.2247   	-83.073174  
 541  	24.2697   	-83.576294  
 542  	24.3146   	-82.210686  
 543  	24.3596   	-82.210686  
 544  	24.4045   	-82.138786  
 545  	24.4494   	-82.210686  
 546  	24.4944   	-82.570061  
 547  	24.5393   	-81.995049  
 548  	24.5843   	-81.132561  
 549  	24.6292   	-81.563774  
 550  	24.6742   	-81.707520  
 551  	24.7191   	-80.701286  
 552  	24.7640   	-80.701286  
 553  	24.8090   	-80.701286  
 554  	24.8539   	-80.198174  
 555  	24.8989   	-80.270012  
 556  	24.9438   	-79.551262  
 557  	24.9888   	-79.191887  
 558  	25.0337   	-77.826286  
 559  	25.0787   	-76.676262  
 560  	25.1236   	-74.663811  
 561  	25.1685   	-72.507561  
 562  	25.2135   	-70.710686  
 563  	25.2584   	-70.063782  
 564  	25.3034   	-70.351311  
 565  	25.3483   	-69.416931  
 566  	25.3933   	-69.704407  
 567  	25.4382   	-68.626282  
 568  	25.4831   	-62.876274  
 569  	25.5281   	-38.223145  
 570  	25.5730   	-15.223143  
 571  	25.6180   	2.026855    
 572  	25.6629   	13.526855   
 573  	25.7079   	23.445557   
 574  	25.7528   	30.058102   
 575  	25.7978   	35.233028   
 576  	25.8427   	36.814327   
 577  	25.8876   	39.904903   
 578  	25.9326   	41.342403   
 579  	25.9775   	42.851803   
 580  	26.0225   	44.864376   
 581  	26.0674   	45.511227   
 582  	26.1124   	47.667477   
 583  	26.1573   	47.595581   
 584  	26.2022   	47.739376   
 585  	26.2472   	47.595581   
 586  	26.2921   	48.529903   
 587  	26.3371   	48.098751   
 588  	26.3820   	48.745605   
 589  	26.4270   	48.314331   
 590  	26.4719   	48.961178   
 591  	26.5169   	49.033081   
 592  	26.5618   	50.326778   
 593  	26.6067   	51.548702   
 594  	26.6517   	51.404903   
 595  	26.6966   	50.542480   
 596  	26.7416   	50.470577   
 597  	26.7865   	51.261230   
 598  	26.8315   	51.979977   
 599  	26.8764   	51.764278   
 600  	26.9213   	51.836178   
 601  	26.9663   	52.267452   
 602  	27.0112   	52.411255   
 603  	27.0562   	52.123653   
 604  	27.1011   	53.848751   
 605  	27.1461   	53.561153   
 606  	27.1910   	52.914303   
 607  	27.2360   	52.483028   
 608  	27.2809   	53.776852   
 609  	27.3258   	54.567501   
 610  	27.3708   	55.573723   
 611  	27.4157   	55.645622   
 612  	27.4607   	54.854973   
 613  	27.5056   	55.717407   
 614  	27.5506   	55.286247   
 615  	27.5955   	55.214348   
 616  	27.6404   	54.495602   
 617  	27.6854   	54.495602   
 618  	27.7303   	54.639278   
 619  	27.7753   	56.148682   
 620  	27.8202   	55.214348   
 621  	27.8652   	55.429932   
 622  	27.9101   	56.723747   
 623  	27.9551   	56.508057   
 624  	28.0000   	56.508057   
 625  	28.0449   	55.789307   
 626  	28.0899   	55.501831   
 627  	28.1348   	55.645622   
 628  	28.1798   	55.070557   
 629  	28.2247   	55.286247   
 630  	28.2697   	55.789307   
 631  	28.3146   	54.567501   
 632  	28.3596   	53.704952   
 633  	28.4045   	54.064327   
 634  	28.4494   	53.776852   
 635  	28.4944   	53.704952   
 636  	28.5393   	54.783077   
 637  	28.5843   	54.711178   
 638  	28.6292   	54.567501   
 639  	28.6742   	54.064327   
 640  	28.7191   	54.495602   
 641  	28.7640   	54.854973   
 642  	28.8090   	54.711178   
 643  	28.8539   	54.495602   
 644  	28.8989   	54.926876   
 645  	28.9438   	56.076782   
 646  	28.9888   	56.220581   
 647  	29.0337   	55.214348   
 648  	29.0787   	55.358032   
 649  	29.1236   	56.004997   
 650  	29.1685   	56.508057   
 651  	29.2135   	56.723747   
 652  	29.2584   	56.723747   
 653  	29.3034   	56.292473   
 654  	29.3483   	57.154907   
 655  	29.3933   	56.292473   
 656  	29.4382   	55.645622   
 657  	29.4831   	54.998657   
 658  	29.5281   	54.783077   
 659  	29.5730   	56.436157   
 660  	29.6180   	56.579956   
 661  	29.6629   	56.436157   
 662  	29.7079   	57.154907   
 663  	29.7528   	57.083122   
 664  	29.7978   	57.658081   
 665  	29.8427   	57.873657   
 666  	29.8876   	57.729980   
 667  	29.9326   	57.442497   
 668  	29.9775   	57.298706   
 669  	30.0225   	56.004997   
 670  	30.0674   	56.004997   
 671  	30.1124   	55.429932   
 672  	30.1573   	56.292473   
 673  	30.2022   	55.717407   
 674  	30.2472   	56.579956   
 675  	30.2921   	55.573723   
 676  	30.3371   	55.717407   
 677  	30.3820   	55.717407   
 678  	30.4270   	56.364372   
 679  	30.4719   	55.933098   
 680  	30.5169   	54.998657   
 681  	30.5618   	56.579956   
 682  	30.6067   	56.148682   
 683  	30.6517   	55.861206   
 684  	30.6966   	54.711178   
 685  	30.7416   	55.501831   
 686  	30.7865   	54.998657   
 687  	30.8315   	55.070557   
 688  	30.8764   	55.645622   
 689  	30.9213   	55.501831   
 690  	30.9663   	55.358032   
 691  	31.0112   	56.004997   
 692  	31.0562   	55.933098   
 693  	31.1011   	56.723747   
 694  	31.1461   	55.861206   
 695  	31.1910   	55.645622   
 696  	31.2360   	55.861206   
 697  	31.2809   	55.789307   
 698  	31.3258   	56.292473   
 699  	31.3708   	56.076782   
 700  	31.4157   	56.004997   
 701  	31.4607   	56.651855   
 702  	31.5056   	55.358032   
 703  	31.5506   	55.789307   
 704  	31.5955   	56.004997   
 705  	31.6404   	55.358032   
 706  	31.6854   	55.501831   
 707  	31.7303   	55.214348   
 708  	31.7753   	55.573723   
 709  	31.8202   	55.933098   
 710  	31.8652   	56.364372   
 711  	31.9101   	55.789307   
 712  	31.9551   	55.933098   
 713  	32.0000   	54.998657   
 714  	32.0449   	55.286247   
 715  	32.0899   	55.429932   
 716  	32.1348   	55.286247   
 717  	32.1798   	55.286247   
 718  	32.2247   	54.926876   
 719  	32.2697   	55.358032   
 720  	32.3146   	54.423702   
 721  	32.3596   	54.208126   
 722  	32.4045   	54.711178   
 723  	32.4494   	54.639278   
 724  	32.4944   	54.567501   
 725  	32.5393   	53.633053   
 726  	32.5843   	54.926876   
 727  	32.6292   	54.208126   
 728  	32.6742   	54.208126   
 729  	32.7191   	54.567501   
 730  	32.7640   	54.279903   
 731  	32.8090   	53.920528   
 732  	32.8539   	53.201778   
 733  	32.8989   	53.273678   
 734  	32.9438   	53.058102   
 735  	32.9888   	53.417477   
 736  	33.0337   	53.273678   
 737  	33.0787   	51.908077   
 738  	33.1236   	52.626827   
 739  	33.1685   	52.554928   
 740  	33.2135   	52.914303   
 741  	33.2584   	52.339352   
 742  	33.3034   	52.842403   
 743  	33.3483   	52.483028   
 744  	33.3933   	52.195553   
 745  	33.4382   	52.554928   
 746  	33.4831   	52.483028   
 747  	33.5281   	51.764278   
 748  	33.5730   	51.476803   
 749  	33.6180   	52.051880   
 750  	33.6629   	50.901855   
 751  	33.7079   	51.764278   
 752  	33.7528   	50.973755   
 753  	33.7978   	52.267452   
 754  	33.8427   	50.973755   
 755  	33.8876   	51.836178   
 756  	33.9326   	50.686153   
 757  	33.9775   	51.620602   
 758  	34.0225   	51.261230   
 759  	34.0674   	53.848751   
 760  	34.1124   	53.561153   
 761  	34.1573   	53.489376   
 762  	34.2022   	52.842403   
 763  	34.2472   	52.698727   
 764  	34.2921   	52.986202   
 765  	34.3371   	52.123653   
 766  	34.3820   	52.123653   
 767  	34.4270   	52.339352   
 768  	34.4719   	53.633053   
 769  	34.5169   	53.561153   
 770  	34.5618   	52.914303   
 771  	34.6067   	52.914303   
 772  	34.6517   	54.279903   
 773  	34.6966   	53.848751   
 774  	34.7416   	53.633053   
 775  	34.7865   	53.130001   
 776  	34.8315   	53.992428   
 777  	34.8764   	53.130001   
 778  	34.9213   	52.123653   
 779  	34.9663   	52.554928   
 780  	35.0112   	52.626827   
 781  	35.0562   	52.123653   
 782  	35.1011   	52.554928   
 783  	35.1461   	52.842403   
 784  	35.1910   	52.195553   
 785  	35.2360   	52.123653   
 786  	35.2809   	52.986202   
 787  	35.3258   	53.058102   
 788  	35.3708   	52.123653   
 789  	35.4157   	53.058102   
 790  	35.4607   	53.058102   
 791  	35.5056   	52.698727   
 792  	35.5506   	53.130001   
 793  	35.5955   	52.626827   
 794  	35.6404   	53.058102   
 795  	35.6854   	52.483028   
 796  	35.7303   	52.483028   
 797  	35.7753   	53.417477   
 798  	35.8202   	53.058102   
 799  	35.8652   	52.123653   
 800  	35.9101   	50.973755   
 801  	35.9551   	51.548702   
 802  	36.0000   	51.045528   
 803  	36.0449   	50.183105   
 804  	36.0899   	49.967403   
 805  	36.1348   	49.536251   
 806  	36.1798   	49.104980   
 807  	36.2247   	47.883057   
 808  	36.2697   	48.601803   
 809  	36.3146   	46.876831   
 810  	36.3596   	46.661251   
 811  	36.4045   	45.008057   
 812  	36.4494   	45.008057   
 813  	36.4944   	43.786251   
 814  	36.5393   	43.426876   
 815  	36.5843   	43.211178   
 816  	36.6292   	42.779907   
 817  	36.6742   	42.061157   
 818  	36.7191   	41.342403   
 819  	36.7640   	39.401852   
 820  	36.8090   	38.611202   
 821  	36.8539   	37.173702   
 822  	36.8989   	36.598755   
 823  	36.9438   	36.023678   
 824  	36.9888   	35.736206   
 825  	37.0337   	35.736206   
 826  	37.0787   	34.442505   
 827  	37.1236   	33.795528   
 828  	37.1685   	33.220581   
 829  	37.2135   	32.286251   
 830  	37.2584   	32.214355   
 831  	37.3034   	31.136230   
 832  	37.3483   	30.489376   
 833  	37.3933   	28.979977   
 834  	37.4382   	28.189327   
 835  	37.4831   	28.836182   
 836  	37.5281   	26.967405   
 837  	37.5730   	26.104979   
 838  	37.6180   	25.458128   
 839  	37.6629   	23.876829   
 840  	37.7079   	23.445557   
 841  	37.7528   	22.726807   
 842  	37.7978   	20.786255   
 843  	37.8427   	18.054930   
 844  	37.8876   	17.767456   
 845  	37.9326   	16.617432   
 846  	37.9775   	14.461182   
 847  	38.0225   	14.461182   
 848  	38.0674   	13.598754   
 849  	38.1124   	11.586182   
 850  	38.1573   	11.370605   
 851  	38.2022   	10.148681   
 852  	38.2472   	9.070557    
 853  	38.2921   	7.704956    
 854  	38.3371   	6.626831    
 855  	38.3820   	5.404907    
 856  	38.4270   	4.542480    
 857  	38.4719   	3.464355    
 858  	38.5169   	2.098755    
 859  	38.5618   	0.948730    
 860  	38.6067   	0.158081    
 861  	38.6517   	-1.854370   
 862  	38.6966   	-3.507568   
 863  	38.7416   	-4.370056   
 864  	38.7865   	-6.166931   
 865  	38.8315   	-8.251282   
 866  	38.8764   	-9.041931   
 867  	38.9213   	-11.198180  
 868  	38.9663   	-12.851317  
 869  	39.0112   	-13.354431  
 870  	39.0562   	-15.007567  
 871  	39.1011   	-16.373167  
 872  	39.1461   	-17.738770  
 873  	39.1910   	-20.038816  
 874  	39.2360   	-21.691893  
 875  	39.2809   	-23.704405  
 876  	39.3258   	-25.788816  
 877  	39.3708   	-26.004395  
 878  	39.4157   	-28.448181  
 879  	39.4607   	-30.460691  
 880  	39.5056   	-31.251280  
 881  	39.5506   	-32.688778  
 882  	39.5955   	-34.916927  
 883  	39.6404   	-35.995052  
 884  	39.6854   	-37.216915  
 885  	39.7303   	-37.863770  
 886  	39.7753   	-38.582520  
 887  	39.8202   	-39.301270  
 888  	39.8652   	-41.098145  
 889  	39.9101   	-42.104431  
 890  	39.9551   	-43.398193  
 891  	40.0000   	-44.260681  
 892  	40.0449   	-44.691891  
 893  	40.0899   	-45.770016  
 894  	40.1348   	-46.057552  
 895  	40.1798   	-47.423153  
 896  	40.2247   	-46.416927  
 897  	40.2697   	-47.495052  
 898  	40.3146   	-48.501278  
 899  	40.3596   	-49.507565  
 900  	40.4045   	-50.657528  
 901  	40.4494   	-51.951290  
 902  	40.4944   	-52.598141  
 903  	40.5393   	-54.538815  
 904  	40.5843   	-54.682552  
 905  	40.6292   	-55.185669  
 906  	40.6742   	-56.191895  
 907  	40.7191   	-58.060669  
 908  	40.7640   	-58.707516  
 909  	40.8090   	-59.641903  
 910  	40.8539   	-60.648190  
 911  	40.8989   	-61.654415  
 912  	40.9438   	-62.804440  
 913  	40.9888   	-63.595024  
 914  	41.0337   	-63.595024  
 915  	41.0787   	-65.176262  
 916  	41.1236   	-65.823174  
 917  	41.1685   	-66.110657  
 918  	41.2135   	-67.116943  
 919  	41.2584   	-69.129387  
 920  	41.3034   	-69.201286  
 921  	41.3483   	-69.488762  
 922  	41.3933   	-69.560661  
 923  	41.4382   	-70.710686  
 924  	41.4831   	-71.429436  
 925  	41.5281   	-71.860657  
 926  	41.5730   	-72.291931  
 927  	41.6180   	-72.076286  
 928  	41.6629   	-71.788811  
 929  	41.7079   	-71.860657  
 930  	41.7528   	-72.148186  
 931  	41.7978   	-72.795036  
 932  	41.8427   	-73.657532  
 933  	41.8876   	-74.807556  
 934  	41.9326   	-74.448181  
 935  	41.9775   	-74.807556  
 936  	42.0225   	-74.591911  
 937  	42.0674   	-74.304436  
 938  	42.1124   	-75.238762  
 939  	42.1573   	-76.316887  
 940  	42.2022   	-76.532532  
 941  	42.2472   	-77.610657  
 942  	42.2921   	-77.395012  
 943  	42.3371   	-77.754387  
 944  	42.3820   	-78.760681  
 945  	42.4270   	-78.257561  
 946  	42.4719   	-78.760681  
 947  	42.5169   	-78.257561  
 948  	42.5618   	-78.832512  
 949  	42.6067   	-78.976311  
 950  	42.6517   	-78.904411  
 951  	42.6966   	-78.545036  
 952  	42.7416   	-78.832512  
 953  	42.7865   	-79.479431  
 954  	42.8315   	-79.982536  
 955  	42.8764   	-80.485649  
 956  	42.9213   	-80.916924  
 957  	42.9663   	-79.982536  
 958  	43.0112   	-79.120056  
 959  	43.0562   	-79.120056  
 960  	43.1011   	-77.682556  
 961  	43.1461   	-75.526306  
 962  	43.1910   	-75.238762  
 963  	43.2360   	-73.729431  
 964  	43.2809   	-72.795036  
 965  	43.3258   	-72.004387  
 966  	43.3708   	-71.645012  
 967  	43.4157   	-70.495056  
 968  	43.4607   	-69.345032  
 969  	43.5056   	-66.829407  
 970  	43.5506   	-53.388790  
 971  	43.5955   	-32.976318  
 972  	43.6404   	-17.163816  
 973  	43.6854   	-4.298157   
 974  	43.7303   	4.901855    
 975  	43.7753   	12.448730   
 976  	43.8202   	19.061155   
 977  	43.8652   	22.295532   
 978  	43.9101   	25.961180   
 979  	43.9551   	29.051878   
 980  	44.0000   	31.783081   
 981  	44.0449   	33.148682   
 982  	44.0899   	34.801880   
 983  	44.1348   	35.951778   
 984  	44.1798   	37.604980   
 985  	44.2247   	38.611202   
 986  	44.2697   	38.539303   
 987  	44.3146   	39.976803   
 988  	44.3596   	40.479977   
 989  	44.4045   	39.761227   
 990  	44.4494   	40.551876   
 991  	44.4944   	40.767452   
 992  	44.5393   	41.486202   
 993  	44.5843   	42.061157   
 994  	44.6292   	42.276852   
 995  	44.6742   	43.354977   
 996  	44.7191   	43.498657   
 997  	44.7640   	44.217407   
 998  	44.8090   	44.720577   
 999  	44.8539   	45.223751   
 1000 	44.8989   	45.367432   
 1001 	44.9438   	45.295532   
 1002 	44.9888   	45.942501   
 1003 	45.0337   	46.229977   
 1004 	45.0787   	47.092403   
 1005 	45.1236   	47.020626   
 1006 	45.1685   	47.451778   
 1007 	45.2135   	47.811153   
 1008 	45.2584   	48.170528   
 1009 	45.3034   	47.811153   
 1010 	45.3483   	48.458126   
 1011 	45.3933   	47.954956   
 1012 	45.4382   	47.092403   
 1013 	45.4831   	47.380001   
 1014 	45.5281   	48.817501   
 1015 	45.5730   	49.320553   
 1016 	45.6180   	50.039303   
 1017 	45.6629   	49.464355   
 1018 	45.7079   	49.823730   
 1019 	45.7528   	50.039303   
 1020 	45.7978   	50.901855   
 1021 	45.8427   	50.901855   
 1022 	45.8876   	50.758053   
 1023 	45.9326   	50.829952   
 1024 	45.9775   	50.758053   
 1025 	46.0225   	51.979977   
 1026 	46.0674   	53.058102   
 1027 	46.1124   	53.848751   
 1028 	46.1573   	54.064327   
 1029 	46.2022   	55.214348   
 1030 	46.2472   	56.004997   
 1031 	46.2921   	56.436157   
 1032 	46.3371   	56.579956   
 1033 	46.3820   	59.095581   
 1034 	46.4270   	69.948730   
 1035 	46.4719   	78.933098   
 1036 	46.5169   	83.820549   
 1037 	46.5618   	84.395622   
 1038 	46.6067   	83.820549   
 1039 	46.6517   	81.448723   
 1040 	46.6966   	79.795525   
 1041 	46.7416   	77.495598   
 1042 	46.7865   	74.764275   
 1043 	46.8315   	72.895630   
 1044 	46.8764   	71.170525   
 1045 	46.9213   	69.373650   
 1046 	46.9663   	68.295525   
 1047 	47.0112   	66.426880   
 1048 	47.0562   	64.701782   
 1049 	47.1011   	63.192505   
 1050 	47.1461   	60.964355   
 1051 	47.1910   	60.604980   
 1052 	47.2360   	60.101807   
 1053 	47.2809   	58.304932   
 1054 	47.3258   	57.801872   
 1055 	47.3708   	56.436157   
 1056 	47.4157   	56.436157   
 1057 	47.4607   	56.220581   
 1058 	47.5056   	56.004997   
 1059 	47.5506   	54.639278   
 1060 	47.5955   	54.136227   
 1061 	47.6404   	54.495602   
 1062 	47.6854   	53.704952   
 1063 	47.7303   	53.776852   
 1064 	47.7753   	52.986202   
 1065 	47.8202   	52.626827   
 1066 	47.8652   	53.776852   
 1067 	47.9101   	53.201778   
 1068 	47.9551   	52.914303   
 1069 	48.0000   	53.704952   
 1070 	48.0449   	54.423702   
 1071 	48.0899   	54.854973   
 1072 	48.1348   	54.926876   
 1073 	48.1798   	54.279903   
 1074 	48.2247   	52.411255   
 1075 	48.2697   	51.836178   
 1076 	48.3146   	52.770630   
 1077 	48.3596   	53.273678   
 1078 	48.4045   	52.195553   
 1079 	48.4494   	52.339352   
 1080 	48.4944   	52.770630   
 1081 	48.5393   	52.123653   
 1082 	48.5843   	51.261230   
 1083 	48.6292   	51.404903   
 1084 	48.6742   	51.117428   
 1085 	48.7191   	51.476803   
 1086 	48.7640   	51.404903   
 1087 	48.8090   	52.914303   
 1088 	48.8539   	51.189327   
 1089 	48.8989   	52.770630   
 1090 	48.9438   	50.686153   
 1091 	48.9888   	51.117428   
 1092 	49.0337   	51.692505   
 1093 	49.0787   	50.614380   
 1094 	49.1236   	51.189327   
 1095 	49.1685   	51.476803   
 1096 	49.2135   	51.117428   
 1097 	49.2584   	51.764278   
 1098 	49.3034   	50.973755   
 1099 	49.3483   	52.123653   
 1100 	49.3933   	50.398678   
 1101 	49.4382   	51.548702   
 1102 	49.4831   	50.255005   
 1103 	49.5281   	50.470577   
 1104 	49.5730   	50.183105   
 1105 	49.6180   	50.183105   
 1106 	49.6629   	50.758053   
 1107 	49.7079   	50.542480   
 1108 	49.7528   	50.901855   
 1109 	49.7978   	51.045528   
 1110 	49.8427   	51.045528   
 1111 	49.8876   	51.189327   
 1112 	49.9326   	50.614380   
 1113 	49.9775   	51.189327   
 1114 	50.0225   	50.614380   
 1115 	50.0674   	50.614380   
 1116 	50.1124   	49.967403   
 1117 	50.1573   	50.973755   
 1118 	50.2022   	51.189327   
 1119 	50.2472   	50.255005   
 1120 	50.2921   	49.895626   
 1121 	50.3371   	50.255005   
 1122 	50.3820   	49.392456   
 1123 	50.4270   	49.967403   
 1124 	50.4719   	50.183105   
 1125 	50.5169   	49.033081   
 1126 	50.5618   	48.961178   
 1127 	50.6067   	48.098751   
 1128 	50.6517   	48.242428   
 1129 	50.6966   	47.164307   
 1130 	50.7416   	47.595581   
 1131 	50.7865   	47.380001   
 1132 	50.8315   	48.889278   
 1133 	50.8764   	49.033081   
 1134 	50.9213   	48.889278   
 1135 	50.9663   	48.458126   
 1136 	51.0112   	48.386230   
 1137 	51.0562   	47.667477   
 1138 	51.1011   	46.804932   
 1139 	51.1461   	47.236206   
 1140 	51.1910   	47.164307   
 1141 	51.2360   	48.529903   
 1142 	51.2809   	48.673706   
 1143 	51.3258   	47.954956   
 1144 	51.3708   	47.739376   
 1145 	51.4157   	47.020626   
 1146 	51.4607   	47.523682   
 1147 	51.5056   	47.380001   
 1148 	51.5506   	46.733028   
 1149 	51.5955   	46.804932   
 1150 	51.6404   	46.804932   
 1151 	51.6854   	47.092403   
 1152 	51.7303   	46.229977   
 1153 	51.7753   	47.954956   
 1154 	51.8202   	47.811153   
 1155 	51.8652   	47.667477   
 1156 	51.9101   	48.458126   
 1157 	51.9551   	49.104980   
 1158 	52.0000   	48.817501   
 1159 	52.0449   	47.667477   
 1160 	52.0899   	47.164307   
 1161 	52.1348   	47.164307   
 1162 	52.1798   	46.661251   
 1163 	52.2247   	47.020626   
 1164 	52.2697   	46.445557   
 1165 	52.3146   	47.092403   
 1166 	52.3596   	46.301876   
 1167 	52.4045   	46.589352   
 1168 	52.4494   	46.876831   
 1169 	52.4944   	47.451778   
 1170 	52.5393   	47.092403   
 1171 	52.5843   	48.170528   
 1172 	52.6292   	48.098751   
 1173 	52.6742   	49.392456   
 1174 	52.7191   	49.033081   
 1175 	52.7640   	48.529903   
 1176 	52.8090   	48.673706   
 1177 	52.8539   	48.098751   
 1178 	52.8989   	48.242428   
 1179 	52.9438   	47.451778   
 1180 	52.9888   	48.098751   
 1181 	53.0337   	49.392456   
 1182 	53.0787   	48.314331   
 1183 	53.1236   	48.170528   
 1184 	53.1685   	48.098751   
 1185 	53.2135   	47.883057   
 1186 	53.2584   	47.811153   
 1187 	53.3034   	48.745605   
 1188 	53.3483   	47.811153   
 1189 	53.3933   	48.098751   
 1190 	53.4382   	47.308102   
 1191 	53.4831   	46.229977   
 1192 	53.5281   	45.942501   
 1193 	53.5730   	45.079952   
 1194 	53.6180   	45.367432   
 1195 	53.6629   	45.079952   
 1196 	53.7079   	45.295532   
 1197 	53.7528   	45.367432   
 1198 	53.7978   	46.014282   
 1199 	53.8427   	45.295532   
 1200 	53.8876   	45.583126   
 1201 	53.9326   	45.654907   
 1202 	53.9775   	45.079952   
 1203 	54.0225   	45.295532   
 1204 	54.0674   	44.936157   
 1205 	54.1124   	44.505001   
 1206 	54.1573   	45.079952   
 1207 	54.2022   	43.786251   
 1208 	54.2472   	43.067501   
 1209 	54.2921   	43.498657   
 1210 	54.3371   	43.067501   
 1211 	54.3820   	42.708126   
 1212 	54.4270   	41.486202   
 1213 	54.4719   	40.911251   
 1214 	54.5169   	39.545528   
 1215 	54.5618   	38.323727   
 1216 	54.6067   	38.036255   
 1217 	54.6517   	37.317505   
 1218 	54.6966   	37.892452   
 1219 	54.7416   	37.029903   
 1220 	54.7865   	36.095581   
 1221 	54.8315   	36.023678   
 1222 	54.8764   	34.873653   
 1223 	54.9213   	33.939331   
 1224 	54.9663   	32.286251   
 1225 	55.0112   	32.933105   
 1226 	55.0562   	31.351805   
 1227 	55.1011   	30.489376   
 1228 	55.1461   	30.848751   
 1229 	55.1910   	30.633057   
 1230 	55.2360   	29.626831   
 1231 	55.2809   	28.404907   
 1232 	55.3258   	27.829952   
 1233 	55.3708   	26.895628   
 1234 	55.4157   	25.889280   
 1235 	55.4607   	25.314331   
 1236 	55.5056   	25.098753   
 1237 	55.5506   	23.804932   
 1238 	55.5955   	23.014280   
 1239 	55.6405   	21.864380   
 1240 	55.6854   	21.001829   
 1241 	55.7303   	20.283079   
 1242 	55.7753   	18.558105   
 1243 	55.8202   	17.911253   
 1244 	55.8652   	16.401854   
 1245 	55.9101   	14.533080   
 1246 	55.9551   	13.526855   
 1247 	56.0000   	13.023681   
 1248 	56.0449   	11.945557   
 1249 	56.0899   	12.233031   
 1250 	56.1348   	11.011230   
 1251 	56.1798   	10.148681   
 1252 	56.2247   	10.220581   
 1253 	56.2697   	8.064330    
 1254 	56.3146   	7.633057    
 1255 	56.3596   	6.842407    
 1256 	56.4045   	6.554931    
 1257 	56.4494   	5.404907    
 1258 	56.4944   	3.536255    
 1259 	56.5393   	1.954956    
 1260 	56.5843   	1.739380    
 1261 	56.6292   	0.373657    
 1262 	56.6742   	-0.848144   
 1263 	56.7191   	-3.148193   
 1264 	56.7640   	-4.585693   
 1265 	56.8090   	-5.304443   
 1266 	56.8539   	-7.532532   
 1267 	56.8989   	-9.329406   
 1268 	56.9438   	-10.263793  
 1269 	56.9888   	-11.988769  
 1270 	57.0337   	-14.001281  
 1271 	57.0787   	-16.229429  
 1272 	57.1236   	-17.810667  
 1273 	57.1685   	-19.248169  
 1274 	57.2135   	-20.038816  
 1275 	57.2584   	-22.123167  
 1276 	57.3034   	-22.554443  
 1277 	57.3483   	-23.776304  
 1278 	57.3933   	-25.645020  
 1279 	57.4382   	-26.866941  
 1280 	57.4831   	-28.088806  
 1281 	57.5281   	-28.807556  
 1282 	57.5730   	-30.532530  
 1283 	57.6180   	-30.891905  
 1284 	57.6629   	-32.760677  
 1285 	57.7079   	-33.479427  
 1286 	57.7528   	-36.066891  
 1287 	57.7978   	-37.288815  
 1288 	57.8427   	-39.301270  
 1289 	57.8876   	-39.948177  
 1290 	57.9326   	-40.738770  
 1291 	57.9775   	-41.529419  
 1292 	58.0225   	-43.398193  
 1293 	58.0674   	-44.476318  
 1294 	58.1124   	-45.051266  
 1295 	58.1573   	-45.626278  
 1296 	58.2022   	-46.488766  
 1297 	58.2472   	-46.991940  
 1298 	58.2921   	-48.501278  
 1299 	58.3371   	-49.363766  
 1300 	58.3820   	-50.226315  
 1301 	58.4270   	-49.795040  
 1302 	58.4719   	-52.023190  
 1303 	58.5169   	-53.101315  
 1304 	58.5618   	-53.676266  
 1305 	58.6067   	-54.826294  
 1306 	58.6517   	-54.107540  
 1307 	58.6966   	-56.191895  
 1308 	58.7416   	-56.695068  
 1309 	58.7865   	-58.491943  
 1310 	58.8315   	-59.929443  
 1311 	58.8764   	-60.216915  
 1312 	58.9213   	-61.366940  
 1313 	58.9663   	-62.085690  
 1314 	59.0112   	-62.804440  
 1315 	59.0562   	-63.523190  
 1316 	59.1011   	-65.104424  
 1317 	59.1461   	-66.685661  
 1318 	59.1910   	-67.260681  
 1319 	59.2360   	-68.410637  
 1320 	59.2809   	-68.554436  
 1321 	59.3258   	-68.554436  
 1322 	59.3708   	-69.991936  
 1323 	59.4157   	-70.423157  
 1324 	59.4607   	-71.070061  
 1325 	59.5056   	-72.435661  
 1326 	59.5506   	-72.579407  
 1327 	59.5955   	-73.154411  
 1328 	59.6405   	-73.010681  
 1329 	59.6854   	-74.376282  
 1330 	59.7303   	-74.807556  
 1331 	59.7753   	-74.951286  
 1332 	59.8202   	-75.166931  
 1333 	59.8652   	-75.166931  
 1334 	59.9101   	-74.807556  
 1335 	59.9551   	-75.957512  
 1336 	60.0000   	-76.460686  
 1337 	60.0449   	-75.957512  
 1338 	60.0899   	-75.310661  
 1339 	60.1348   	-75.238762  
 1340 	60.1798   	-75.238762  
 1341 	60.2247   	-75.957512  
 1342 	60.2697   	-77.107536  
 1343 	60.3146   	-77.682556  
 1344 	60.3596   	-78.041931  
 1345 	60.4045   	-78.976311  
 1346 	60.4494   	-78.976311  
 1347 	60.4944   	-78.760681  
 1348 	60.5393   	-79.191887  
 1349 	60.5843   	-79.479431  
 1350 	60.6292   	-80.054436  
 1351 	60.6742   	-79.910637  
 1352 	60.7191   	-80.341911  
 1353 	60.7640   	-81.779411  
 1354 	60.8090   	-81.132561  
 1355 	60.8539   	-81.563774  
 1356 	60.8989   	-81.132561  
 1357 	60.9438   	-81.348145  
 1358 	60.9888   	-81.060661  
 1359 	61.0337   	-81.420036  
 1360 	61.0787   	-81.204399  
 1361 	61.1236   	-81.204399  
 1362 	61.1685   	-81.635674  
 1363 	61.2135   	-82.066895  
 1364 	61.2584   	-81.060661  
 1365 	61.3034   	-81.851311  
 1366 	61.3483   	-81.851311  
 1367 	61.3933   	-81.635674  
 1368 	61.4382   	-82.570061  
 1369 	61.4831   	-82.641899  
 1370 	61.5281   	-81.995049  
 1371 	61.5730   	-82.210686  
 1372 	61.6180   	-83.001274  
 1373 	61.6629   	-81.995049  
 1374 	61.7079   	-82.785645  
 1375 	61.7528   	-83.145020  
 1376 	61.7978   	-82.426270  
 1377 	61.8427   	-82.066895  
 1378 	61.8876   	-82.354424  
 1379 	61.9326   	-83.360649  
 1380 	61.9775   	-83.648186  
 1381 	62.0225   	-83.216919  
 1382 	62.0674   	-83.288811  
 1383 	62.1124   	-83.720024  
 1384 	62.1573   	-83.648186  
 1385 	62.2022   	-83.935669  
 1386 	62.2472   	-82.354424  
 1387 	62.2921   	-81.995049  
 1388 	62.3371   	-82.210686  
 1389 	62.3820   	-82.929436  
 1390 	62.4270   	-81.420036  
 1391 	62.4719   	-81.995049  
 1392 	62.5169   	-82.066895  
 1393 	62.5618   	-82.498161  
 1394 	62.6067   	-82.785645  
 1395 	62.6517   	-82.713799  
 1396 	62.6966   	-82.570061  
 1397 	62.7416   	-82.426270  
 1398 	62.7865   	-82.354424  
 1399 	62.8315   	-83.504395  
 1400 	62.8764   	-83.360649  
 1401 	62.9213   	-83.863770  
 1402 	62.9663   	-83.935669  
 1403 	63.0112   	-83.432549  
 1404 	63.0562   	-83.576294  
 1405 	63.1011   	-83.288811  
 1406 	63.1461   	-82.426270  
 1407 	63.1910   	-83.432549  
 1408 	63.2360   	-83.145020  
 1409 	63.2809   	-83.001274  
 1410 	63.3258   	-82.426270  
 1411 	63.3708   	-82.498161  
 1412 	63.4157   	-82.282524  
 1413 	63.4607   	-83.360649  
 1414 	63.5056   	-83.360649  
 1415 	63.5506   	-83.001274  
 1416 	63.5955   	-82.785645  
 1417 	63.6405   	-83.576294  
 1418 	63.6854   	-82.498161  
 1419 	63.7303   	-82.713799  
 1420 	63.7753   	-82.713799  
 1421 	63.8202   	-82.785645  
 1422 	63.8652   	-83.216919  
 1423 	63.9101   	-83.001274  
 1424 	63.9551   	-82.282524  
 1425 	64.0000   	-82.066895  
 1426 	64.0449   	-81.635674  
 1427 	64.0899   	-80.845024  
 1428 	64.1348   	-80.557549  
 1429 	64.1798   	-80.341911  
 1430 	64.2247   	-80.198174  
 1431 	64.2697   	-79.910637  
 1432 	64.3146   	-79.623161  
 1433 	64.3596   	-78.688774  
 1434 	64.4045   	-78.616936  
 1435 	64.4494   	-74.807556  
 1436 	64.4944   	-66.685661  
 1437 	64.5393   	-59.282528  
 1438 	64.5843   	-54.754391  
 1439 	64.6292   	-53.676266  
 1440 	64.6742   	-54.251278  
 1441 	64.7191   	-54.970028  
 1442 	64.7640   	-57.198177  
 1443 	64.8090   	-59.282528  
 1444 	64.8539   	-60.791927  
 1445 	64.8989   	-62.013790  
 1446 	64.9438   	-63.666924  
 1447 	64.9888   	-65.320068  
 1448 	65.0337   	-66.326286  
 1449 	65.0787   	-68.554436  
 1450 	65.1236   	-69.560661  
 1451 	65.1685   	-70.998161  
 1452 	65.2135   	-72.148186  
 1453 	65.2584   	-73.370056  
 1454 	65.3034   	-73.873161  
 1455 	65.3483   	-75.454407  
 1456 	65.3933   	-77.035637  
 1457 	65.4382   	-77.538811  
 1458 	65.4831   	-78.113762  
 1459 	65.5281   	-78.473137  
 1460 	65.5730   	-78.832512  
 1461 	65.6180   	-80.341911  
 1462 	65.6629   	-79.910637  
 1463 	65.7079   	-79.766899  
 1464 	65.7528   	-80.773186  
 1465 	65.7978   	-81.420036  
 1466 	65.8427   	-82.570061  
 1467 	65.8876   	-82.570061  
 1468 	65.9326   	-82.929436  
 1469 	65.9775   	-82.713799  
 1470 	66.0225   	-82.570061  
 1471 	66.0674   	-83.145020  
 1472 	66.1124   	-82.857544  
 1473 	66.1573   	-83.576294  
 1474 	66.2022   	-82.929436  
 1475 	66.2472   	-82.857544  
 1476 	66.2921   	-82.426270  
 1477 	66.3371   	-82.570061  
 1478 	66.3820   	-83.576294  
 1479 	66.4270   	-83.001274  
 1480 	66.4719   	-82.785645  
 1481 	66.5169   	-82.929436  
 1482 	66.5618   	-84.295044  
 1483 	66.6067   	-83.360649  
 1484 	66.6517   	-84.151299  
 1485 	66.6966   	-83.504395  
 1486 	66.7416   	-84.151299  
 1487 	66.7865   	-82.929436  
 1488 	66.8315   	-83.791924  
 1489 	66.8764   	-83.648186  
 1490 	66.9213   	-84.079399  
 1491 	66.9663   	-84.582520  
 1492 	67.0112   	-83.073174  
 1493 	67.0562   	-83.216919  
 1494 	67.1011   	-83.001274  
 1495 	67.1461   	-82.857544  
 1496 	67.1910   	-82.138786  
 1497 	67.2360   	-82.426270  
 1498 	67.2809   	-81.204399  
 1499 	67.3258   	-81.779411  
 1500 	67.3708   	-82.426270  
 1501 	67.4157   	-82.426270  
 1502 	67.4607   	-82.426270  
 1503 	67.5056   	-83.288811  
 1504 	67.5506   	-83.216919  
 1505 	67.5955   	-83.791924  
 1506 	67.6405   	-84.870049  
 1507 	67.6854   	-84.223145  
 1508 	67.7303   	-84.007561  
 1509 	67.7753   	-83.288811  
 1510 	67.8202   	-83.001274  
 1511 	67.8652   	-83.576294  
 1512 	67.9101   	-83.863770  
 1513 	67.9551   	-84.151299  
 1514 	68.0000   	-84.438774  
 1515 	68.0449   	-85.157524  
 1516 	68.0899   	-85.373169  
 1517 	68.1348   	-84.798149  
 1518 	68.1798   	-85.013794  
 1519 	68.2247   	-84.941895  
 1520 	68.2697   	-84.654419  
 1521 	68.3146   	-84.798149  
 1522 	68.3596   	-84.151299  
 1523 	68.4045   	-84.798149  
 1524 	68.4494   	-84.870049  
 1525 	68.4944   	-84.151299  
 1526 	68.5393   	-84.582520  
 1527 	68.5843   	-85.229424  
 1528 	68.6292   	-84.510674  
 1529 	68.6742   	-83.935669  
 1530 	68.7191   	-84.438774  
 1531 	68.7640   	-84.582520  
 1532 	68.8090   	-85.445068  
 1533 	68.8539   	-84.726311  
 1534 	68.8989   	-85.660645  
 1535 	68.9438   	-86.091919  
 1536 	68.9888   	-86.882568  
 1537 	69.0337   	-85.804443  
 1538 	69.0787   	-86.451294  
 1539 	69.1236   	-85.732544  
 1540 	69.1685   	-86.666924  
 1541 	69.2135   	-85.948174  
 1542 	69.2584   	-85.948174  
 1543 	69.3034   	-85.876274  
 1544 	69.3483   	-85.876274  
 1545 	69.3933   	-85.588799  
 1546 	69.4382   	-85.373169  
 1547 	69.4831   	-84.726311  
 1548 	69.5281   	-84.295044  
 1549 	69.5730   	-85.229424  
 1550 	69.6180   	-85.373169  
 1551 	69.6629   	-85.948174  
 1552 	69.7079   	-86.235649  
 1553 	69.7528   	-85.660645  
 1554 	69.7978   	-85.085693  
 1555 	69.8427   	-84.726311  
 1556 	69.8876   	-85.660645  
 1557 	69.9326   	-85.013794  
 1558 	69.9775   	-84.941895  
 1559 	70.0225   	-84.798149  
 1560 	70.0674   	-84.870049  
 1561 	70.1124   	-84.941895  
 1562 	70.1573   	-85.013794  
 1563 	70.2022   	-84.438774  
 1564 	70.2472   	-84.295044  
 1565 	70.2921   	-84.582520  
 1566 	70.3371   	-84.438774  
 1567 	70.3820   	-84.726311  
 1568 	70.4270   	-84.798149  
 1569 	70.4719   	-84.438774  
 1570 	70.5169   	-84.798149  
 1571 	70.5618   	-85.732544  
 1572 	70.6067   	-86.235649  
 1573 	70.6517   	-85.876274  
 1574 	70.6966   	-85.516899  
 1575 	70.7416   	-85.804443  
 1576 	70.7865   	-86.020020  
 1577 	70.8315   	-85.588799  
 1578 	70.8764   	-85.229424  
 1579 	70.9213   	-84.438774  
 1580 	70.9663   	-85.445068  
 1581 	71.0112   	-86.091919  
 1582 	71.0562   	-85.301270  
 1583 	71.1011   	-85.373169  
 1584 	71.1461   	-84.870049  
 1585 	71.1910   	-84.798149  
 1586 	71.2360   	-85.157524  
 1587 	71.2809   	-84.510674  
 1588 	71.3258   	-84.366936  
 1589 	71.3708   	-85.085693  
 1590 	71.4157   	-85.229424  
 1591 	71.4607   	-85.229424  
 1592 	71.5056   	-85.157524  
 1593 	71.5506   	-85.516899  
 1594 	71.5955   	-85.516899  
 1595 	71.6405   	-85.516899  
 1596 	71.6854   	-85.516899  
 1597 	71.7303   	-85.948174  
 1598 	71.7753   	-84.870049  
 1599 	71.8202   	-84.654419  
 1600 	71.8652   	-85.948174  
 1601 	71.9101   	-85.516899  
 1602 	71.9551   	-84.941895  
 1603 	72.0000   	-85.229424  
 1604 	72.0449   	-85.085693  
 1605 	72.0899   	-85.013794  
 1606 	72.1348   	-84.510674  
 1607 	72.1798   	-85.229424  
 1608 	72.2247   	-84.798149  
 1609 	72.2697   	-84.654419  
 1610 	72.3146   	-84.798149  
 1611 	72.3596   	-84.295044  
 1612 	72.4045   	-84.582520  
 1613 	72.4494   	-84.870049  
 1614 	72.4944   	-86.163818  
 1615 	72.5393   	-85.876274  
 1616 	72.5843   	-86.020020  
 1617 	72.6292   	-86.235649  
 1618 	72.6742   	-85.660645  
 1619 	72.7191   	-85.301270  
 1620 	72.7640   	-85.445068  
 1621 	72.8090   	-84.798149  
 1622 	72.8539   	-85.157524  
 1623 	72.8989   	-85.373169  
 1624 	72.9438   	-85.157524  
 1625 	72.9888   	-85.804443  
 1626 	73.0337   	-85.732544  
 1627 	73.0787   	-86.595024  
 1628 	73.1236   	-86.307549  
 1629 	73.1685   	-85.804443  
 1630 	73.2135   	-85.445068  
 1631 	73.2584   	-85.588799  
 1632 	73.3034   	-86.163818  
 1633 	73.3483   	-86.235649  
 1634 	73.3933   	-85.373169  
 1635 	73.4382   	-85.157524  
 1636 	73.4831   	-85.516899  
 1637 	73.5281   	-85.876274  
 1638 	73.5730   	-85.588799  
 1639 	73.6180   	-85.445068  
 1640 	73.6629   	-85.013794  
 1641 	73.7079   	-85.157524  
 1642 	73.7528   	-85.516899  
 1643 	73.7978   	-85.660645  
 1644 	73.8427   	-85.301270  
 1645 	73.8876   	-84.870049  
 1646 	73.9326   	-84.007561  
 1647 	73.9775   	-84.870049  
 1648 	74.0225   	-84.510674  
 1649 	74.0674   	-85.876274  
 1650 	74.1124   	-86.091919  
 1651 	74.1573   	-86.379395  
 1652 	74.2022   	-87.601318  
 1653 	74.2472   	-86.379395  
 1654 	74.2921   	-86.163818  
 1655 	74.3371   	-85.876274  
 1656 	74.3820   	-85.301270  
 1657 	74.4270   	-85.301270  
 1658 	74.4719   	-85.445068  
 1659 	74.5169   	-85.013794  
 1660 	74.5618   	-84.798149  
 1661 	74.6067   	-84.798149  
 1662 	74.6517   	-85.157524  
 1663 	74.6966   	-85.157524  
 1664 	74.7416   	-85.013794  
 1665 	74.7865   	-85.157524  
 1666 	74.8315   	-85.373169  
 1667 	74.8764   	-84.510674  
 1668 	74.9213   	-83.863770  
 1669 	74.9663   	-84.798149  
 1670 	75.0112   	-84.654419  
 1671 	75.0562   	-85.157524  
 1672 	75.1011   	-84.366936  
 1673 	75.1461   	-84.295044  
 1674 	75.1910   	-85.229424  
 1675 	75.2360   	-84.798149  
 1676 	75.2809   	-85.445068  
 1677 	75.3258   	-85.876274  
 1678 	75.3708   	-85.804443  
 1679 	75.4157   	-85.804443  
 1680 	75.4607   	-85.732544  
 1681 	75.5056   	-86.882568  
 1682 	75.5506   	-87.241943  
 1683 	75.5955   	-87.385674  
 1684 	75.6405   	-86.954399  
 1685 	75.6854   	-86.954399  
 1686 	75.7303   	-87.313774  
 1687 	75.7753   	-86.954399  
 1688 	75.8202   	-86.091919  
 1689 	75.8652   	-86.307549  
 1690 	75.9101   	-86.738770  
 1691 	75.9551   	-86.451294  
 1692 	76.0000   	-86.379395  
 1693 	76.0449   	-85.948174  
 1694 	76.0899   	-86.451294  
 1695 	76.1348   	-85.373169  
 1696 	76.1798   	-86.020020  
 1697 	76.2247   	-86.091919  
 1698 	76.2697   	-84.941895  
 1699 	76.3146   	-85.732544  
 1700 	76.3596   	-86.307549  
 1701 	76.4045   	-86.379395  
 1702 	76.4494   	-85.732544  
 1703 	76.4944   	-85.085693  
 1704 	76.5393   	-85.013794  
 1705 	76.5843   	-86.020020  
 1706 	76.6292   	-86.091919  
 1707 	76.6742   	-86.379395  
 1708 	76.7191   	-85.660645  
 1709 	76.7640   	-85.301270  
 1710 	76.8090   	-85.516899  
 1711 	76.8539   	-85.804443  
 1712 	76.8989   	-85.948174  
 1713 	76.9438   	-84.941895  
 1714 	76.9888   	-85.157524  
 1715 	77.0337   	-85.445068  
 1716 	77.0787   	-85.876274  
 1717 	77.1236   	-86.307549  
 1718 	77.1685   	-86.091919  
 1719 	77.2135   	-86.882568  
 1720 	77.2584   	-86.954399  
 1721 	77.3034   	-86.235649  
 1722 	77.3483   	-86.595024  
 1723 	77.3933   	-85.732544  
 1724 	77.4382   	-85.948174  
 1725 	77.4831   	-85.804443  
 1726 	77.5281   	-85.804443  
 1727 	77.5730   	-85.157524  
 1728 	77.6180   	-84.798149  
 1729 	77.6629   	-84.726311  
 1730 	77.7079   	-85.157524  
 1731 	77.7528   	-85.373169  
 1732 	77.7978   	-85.660645  
 1733 	77.8427   	-85.732544  
 1734 	77.8876   	-85.732544  
 1735 	77.9326   	-85.516899  
 1736 	77.9775   	-85.229424  
 1737 	78.0225   	-85.301270  
 1738 	78.0674   	-85.588799  
 1739 	78.1124   	-85.516899  
 1740 	78.1573   	-85.445068  
 1741 	78.2022   	-84.295044  
 1742 	78.2472   	-85.013794  
 1743 	78.2921   	-85.876274  
 1744 	78.3371   	-85.013794  
 1745 	78.3820   	-85.876274  
 1746 	78.4270   	-86.091919  
 1747 	78.4719   	-86.020020  
 1748 	78.5169   	-85.301270  
 1749 	78.5618   	-84.726311  
 1750 	78.6067   	-85.445068  
 1751 	78.6517   	-86.163818  
 1752 	78.6966   	-86.235649  
 1753 	78.7416   	-85.588799  
 1754 	78.7865   	-84.798149  
 1755 	78.8315   	-84.798149  
 1756 	78.8764   	-84.151299  
 1757 	78.9213   	-84.654419  
 1758 	78.9663   	-84.510674  
 1759 	79.0112   	-84.366936  
 1760 	79.0562   	-84.151299  
 1761 	79.1011   	-83.863770  
 1762 	79.1461   	-84.223145  
 1763 	79.1910   	-84.941895  
 1764 	79.2360   	-84.438774  
 1765 	79.2809   	-84.870049  
 1766 	79.3258   	-85.373169  
 1767 	79.3708   	-85.373169  
 1768 	79.4157   	-85.588799  
 1769 	79.4607   	-85.876274  
 1770 	79.5056   	-84.654419  
 1771 	79.5506   	-85.013794  
 1772 	79.5955   	-83.648186  
 1773 	79.6405   	-83.720024  
 1774 	79.6854   	-83.720024  
 1775 	79.7303   	-84.295044  
 1776 	79.7753   	-83.720024  
 1777 	79.8202   	-84.798149  
 1778 	79.8652   	-84.870049  
 1779 	79.9101   	-84.654419  
 1780 	79.9551   	-84.510674  
 1781 	80.0000   	-84.438774  
 1782 	80.0449   	-84.438774  
 1783 	80.0899   	-84.223145  
 1784 	80.1348   	-85.157524  
 1785 	80.1798   	-85.013794  
 1786 	80.2247   	-85.013794  
 1787 	80.2697   	-84.151299  
 1788 	80.3146   	-83.791924  
 1789 	80.3596   	-85.085693  
 1790 	80.4045   	-83.145020  
 1791 	80.4494   	-83.216919  
 1792 	80.4944   	-83.432549  
 1793 	80.5393   	-83.145020  
 1794 	80.5843   	-83.360649  
 1795 	80.6292   	-83.216919  
 1796 	80.6742   	-84.079399  
 1797 	80.7191   	-85.157524  
 1798 	80.7640   	-84.151299  
 1799 	80.8090   	-83.863770  
 1800 	80.8539   	-84.007561  
 1801 	80.8989   	-83.720024  
 1802 	80.9438   	-84.582520  
 1803 	80.9888   	-84.151299  
 1804 	81.0337   	-84.295044  
 1805 	81.0787   	-84.870049  
 1806 	81.1236   	-85.301270  
 1807 	81.1685   	-84.079399  
 1808 	81.2135   	-84.798149  
 1809 	81.2584   	-83.791924  
 1810 	81.3034   	-84.366936  
 1811 	81.3483   	-83.576294  
 1812 	81.3933   	-84.151299  
 1813 	81.4382   	-83.504395  
 1814 	81.4831   	-84.654419  
 1815 	81.5281   	-84.654419  
 1816 	81.5730   	-83.720024  
 1817 	81.6180   	-83.504395  
 1818 	81.6629   	-83.576294  
 1819 	81.7079   	-83.648186  
 1820 	81.7528   	-82.929436  
 1821 	81.7978   	-84.151299  
 1822 	81.8427   	-84.007561  
 1823 	81.8876   	-84.366936  
 1824 	81.9326   	-83.935669  
 1825 	81.9775   	-84.438774  
 1826 	82.0225   	-84.582520  
 1827 	82.0674   	-84.510674  
 1828 	82.1124   	-84.582520  
 1829 	82.1573   	-84.151299  
 1830 	82.2022   	-83.001274  
 1831 	82.2472   	-82.929436  
 1832 	82.2921   	-82.785645  
 1833 	82.3371   	-83.288811  
 1834 	82.3820   	-83.073174  
 1835 	82.4270   	-83.216919  
 1836 	82.4719   	-84.510674  
 1837 	82.5169   	-84.223145  
 1838 	82.5618   	-83.216919  
 1839 	82.6067   	-84.079399  
 1840 	82.6517   	-84.151299  
 1841 	82.6966   	-84.726311  
 1842 	82.7416   	-84.510674  
 1843 	82.7865   	-85.013794  
 1844 	82.8315   	-84.151299  
 1845 	82.8764   	-84.295044  
 1846 	82.9213   	-83.863770  
 1847 	82.9663   	-84.007561  
 1848 	83.0112   	-84.079399  
 1849 	83.0562   	-84.654419  
 1850 	83.1011   	-85.229424  
 1851 	83.1461   	-85.013794  
 1852 	83.1910   	-83.576294  
 1853 	83.2360   	-82.785645  
 1854 	83.2809   	-83.360649  
 1855 	83.3258   	-83.791924  
 1856 	83.3708   	-83.432549  
 1857 	83.4157   	-84.582520  
 1858 	83.4607   	-84.438774  
 1859 	83.5056   	-84.151299  
 1860 	83.5506   	-84.366936  
 1861 	83.5955   	-84.941895  
 1862 	83.6405   	-84.510674  
 1863 	83.6854   	-84.510674  
 1864 	83.7303   	-84.438774  
 1865 	83.7753   	-84.941895  
 1866 	83.8202   	-84.941895  
 1867 	83.8652   	-83.720024  
 1868 	83.9101   	-84.079399  
 1869 	83.9551   	-84.438774  
 1870 	84.0000   	-82.857544  
 1871 	84.0449   	-83.432549  
 1872 	84.0899   	-82.570061  
 1873 	84.1348   	-82.498161  
 1874 	84.1798   	-82.426270  
 1875 	84.2247   	-82.929436  
 1876 	84.2697   	-84.366936  
 1877 	84.3146   	-84.798149  
 1878 	84.3596   	-84.438774  
 1879 	84.4045   	-84.654419  
 1880 	84.4494   	-84.079399  
 1881 	84.4944   	-84.726311  
 1882 	84.5393   	-84.079399  
 1883 	84.5843   	-83.360649  
 1884 	84.6292   	-83.216919  
 1885 	84.6742   	-84.295044  
 1886 	84.7191   	-84.438774  
 1887 	84.7640   	-84.366936  
 1888 	84.8090   	-84.151299  
 1889 	84.8539   	-84.151299  
 1890 	84.8989   	-83.001274  
 1891 	84.9438   	-84.079399  
 1892 	84.9888   	-84.151299  
 1893 	85.0337   	-83.576294  
 1894 	85.0787   	-83.863770  
 1895 	85.1236   	-83.073174  
 1896 	85.1685   	-82.929436  
 1897 	85.2135   	-83.216919  
 1898 	85.2584   	-83.504395  
 1899 	85.3034   	-82.929436  
 1900 	85.3483   	-83.001274  
 1901 	85.3933   	-82.641899  
 1902 	85.4382   	-83.216919  
 1903 	85.4831   	-83.720024  
 1904 	85.5281   	-83.360649  
 1905 	85.5730   	-82.785645  
 1906 	85.6180   	-82.210686  
 1907 	85.6629   	-82.066895  
 1908 	85.7079   	-83.648186  
 1909 	85.7528   	-83.360649  
 1910 	85.7978   	-83.504395  
 1911 	85.8427   	-83.648186  
 1912 	85.8876   	-83.216919  
 1913 	85.9326   	-83.360649  
 1914 	85.9775   	-83.360649  
 1915 	86.0225   	-83.360649  
 1916 	86.0674   	-83.504395  
 1917 	86.1124   	-84.366936  
 1918 	86.1573   	-84.366936  
 1919 	86.2022   	-83.576294  
 1920 	86.2472   	-84.726311  
 1921 	86.2921   	-84.366936  
 1922 	86.3371   	-84.654419  
 1923 	86.3820   	-85.157524  
 1924 	86.4270   	-84.438774  
 1925 	86.4719   	-84.007561  
 1926 	86.5169   	-83.360649  
 1927 	86.5618   	-83.432549  
 1928 	86.6067   	-82.857544  
 1929 	86.6517   	-82.929436  
 1930 	86.6966   	-83.001274  
 1931 	86.7416   	-83.073174  
 1932 	86.7865   	-84.007561  
 1933 	86.8315   	-84.654419  
 1934 	86.8764   	-84.151299  
 1935 	86.9213   	-83.504395  
 1936 	86.9663   	-84.510674  
 1937 	87.0112   	-84.582520  
 1938 	87.0562   	-84.079399  
 1939 	87.1011   	-84.726311  
 1940 	87.1461   	-84.079399  
 1941 	87.1910   	-84.151299  
 1942 	87.2360   	-84.151299  
 1943 	87.2809   	-83.863770  
 1944 	87.3258   	-84.079399  
 1945 	87.3708   	-84.151299  
 1946 	87.4157   	-83.216919  
 1947 	87.4607   	-83.576294  
 1948 	87.5056   	-83.360649  
 1949 	87.5506   	-84.295044  
 1950 	87.5955   	-83.648186  
 1951 	87.6405   	-83.648186  
 1952 	87.6854   	-83.360649  
 1953 	87.7303   	-83.432549  
 1954 	87.7753   	-82.426270  
 1955 	87.8202   	-81.995049  
 1956 	87.8652   	-83.288811  
 1957 	87.9101   	-83.216919  
 1958 	87.9551   	-83.432549  
 1959 	88.0000   	-83.288811  
 1960 	88.0449   	-82.354424  
 1961 	88.0899   	-82.282524  
 1962 	88.1348   	-83.073174  
 1963 	88.1798   	-83.073174  
 1964 	88.2247   	-81.923149  
 1965 	88.2697   	-82.641899  
 1966 	88.3146   	-82.354424  
 1967 	88.3596   	-81.995049  
 1968 	88.4045   	-81.420036  
 1969 	88.4494   	-81.923149  
 1970 	88.4944   	-81.420036  
 1971 	88.5393   	-82.210686  
 1972 	88.5843   	-82.498161  
 1973 	88.6292   	-83.001274  
 1974 	88.6742   	-83.791924  
 1975 	88.7191   	-83.073174  
 1976 	88.7640   	-82.929436  
 1977 	88.8090   	-83.432549  
 1978 	88.8539   	-83.648186  
 1979 	88.8989   	-83.791924  
 1980 	88.9438   	-83.432549  
 1981 	88.9888   	-83.720024  
 1982 	89.0337   	-83.576294  
 1983 	89.0787   	-83.863770  
 1984 	89.1236   	-83.720024  
 1985 	89.1685   	-83.288811  
 1986 	89.2135   	-83.791924  
 1987 	89.2584   	-83.648186  
 1988 	89.3034   	-83.360649  
 1989 	89.3483   	-84.079399  
 1990 	89.3933   	-83.863770  
 1991 	89.4382   	-83.504395  
 1992 	89.4831   	-83.863770  
 1993 	89.5281   	-83.720024  
 1994 	89.5730   	-84.007561  
 1995 	89.6180   	-84.079399  
 1996 	89.6629   	-84.438774  
 1997 	89.7079   	-83.935669  
 1998 	89.7528   	-84.510674  
 1999 	89.7978   	-84.726311  
 2000 	89.8427   	-84.510674  
 2001 	89.8876   	-83.863770  
 2002 	89.9326   	-83.791924  
 2003 	89.9775   	-83.216919  
 2004 	90.0225   	-83.288811  
 2005 	90.0674   	-83.073174  
 2006 	90.1124   	-83.216919  
 2007 	90.1573   	-83.504395  
 2008 	90.2022   	-83.504395  
 2009 	90.2472   	-83.935669  
 2010 	90.2921   	-84.438774  
 2011 	90.3371   	-84.007561  
 2012 	90.3820   	-83.504395  
 2013 	90.4270   	-83.360649  
 2014 	90.4719   	-83.073174  
 2015 	90.5169   	-82.570061  
 2016 	90.5618   	-83.791924  
 2017 	90.6067   	-83.216919  
 2018 	90.6517   	-83.432549  
 2019 	90.6966   	-83.720024  
 2020 	90.7416   	-83.720024  
 2021 	90.7865   	-83.360649  
 2022 	90.8315   	-82.929436  
 2023 	90.8764   	-83.504395  
 2024 	90.9213   	-83.935669  
 2025 	90.9663   	-83.576294  
 2026 	91.0112   	-83.001274  
 2027 	91.0562   	-83.001274  
 2028 	91.1011   	-82.785645  
 2029 	91.1461   	-83.216919  
 2030 	91.1910   	-82.929436  
 2031 	91.2360   	-83.576294  
 2032 	91.2809   	-84.007561  
 2033 	91.3258   	-84.510674  
 2034 	91.3708   	-83.504395  
 2035 	91.4157   	-83.576294  
 2036 	91.4607   	-82.929436  
 2037 	91.5056   	-82.785645  
 2038 	91.5506   	-82.282524  
 2039 	91.5955   	-81.635674  
 2040 	91.6405   	-82.210686  
 2041 	91.6854   	-82.210686  
 2042 	91.7303   	-81.635674  
 2043 	91.7753   	-81.779411  
 2044 	91.8202   	-81.923149  
 2045 	91.8652   	-82.210686  
 2046 	91.9101   	-82.498161  
 2047 	91.9551   	-82.929436  
 2048 	92.0000   	-83.791924  

