
      	X(nS)     	Ch1(mV)      


 1    	0.0000    	-67.795776  
 2    	0.0449    	-68.514526  
 3    	0.0899    	-68.011414  
 4    	0.1348    	-69.017639  
 5    	0.1798    	-68.083252  
 6    	0.2247    	-68.586365  
 7    	0.2697    	-68.873901  
 8    	0.3146    	-69.233276  
 9    	0.3596    	-69.377014  
 10   	0.4045    	-68.802002  
 11   	0.4494    	-69.089539  
 12   	0.4944    	-68.298889  
 13   	0.5393    	-67.867615  
 14   	0.5843    	-68.442635  
 15   	0.6292    	-69.161377  
 16   	0.6742    	-69.305115  
 17   	0.7191    	-69.017639  
 18   	0.7640    	-69.305115  
 19   	0.8090    	-68.586365  
 20   	0.8539    	-68.802002  
 21   	0.8989    	-69.161377  
 22   	0.9438    	-68.011414  
 23   	0.9888    	-67.220764  
 24   	1.0337    	-67.292664  
 25   	1.0787    	-68.155151  
 26   	1.1236    	-68.945740  
 27   	1.1685    	-68.083252  
 28   	1.2135    	-67.795776  
 29   	1.2584    	-67.148865  
 30   	1.3034    	-67.867615  
 31   	1.3483    	-67.795776  
 32   	1.3933    	-69.017639  
 33   	1.4382    	-69.736389  
 34   	1.4831    	-69.233276  
 35   	1.5281    	-68.226990  
 36   	1.5730    	-68.802002  
 37   	1.6180    	-68.083252  
 38   	1.6629    	-69.089539  
 39   	1.7079    	-69.089539  
 40   	1.7528    	-68.873901  
 41   	1.7978    	-68.586365  
 42   	1.8427    	-68.011414  
 43   	1.8876    	-68.442635  
 44   	1.9326    	-68.298889  
 45   	1.9775    	-69.664490  
 46   	2.0225    	-69.520760  
 47   	2.0674    	-69.161377  
 48   	2.1124    	-68.226990  
 49   	2.1573    	-68.586365  
 50   	2.2022    	-68.945740  
 51   	2.2472    	-69.880127  
 52   	2.2921    	-69.880127  
 53   	2.3371    	-68.873901  
 54   	2.3820    	-69.089539  
 55   	2.4270    	-69.664490  
 56   	2.4719    	-69.520760  
 57   	2.5169    	-68.945740  
 58   	2.5618    	-69.089539  
 59   	2.6067    	-69.089539  
 60   	2.6517    	-68.873901  
 61   	2.6966    	-68.442635  
 62   	2.7416    	-68.730171  
 63   	2.7865    	-69.377014  
 64   	2.8315    	-69.736389  
 65   	2.8764    	-69.592651  
 66   	2.9213    	-69.808296  
 67   	2.9663    	-70.023865  
 68   	3.0112    	-69.448914  
 69   	3.0562    	-69.592651  
 70   	3.1011    	-69.017639  
 71   	3.1461    	-69.233276  
 72   	3.1910    	-68.658264  
 73   	3.2360    	-68.370789  
 74   	3.2809    	-68.298889  
 75   	3.3258    	-69.305115  
 76   	3.3708    	-69.664490  
 77   	3.4157    	-69.448914  
 78   	3.4607    	-70.239502  
 79   	3.5056    	-70.742615  
 80   	3.5506    	-70.239502  
 81   	3.5955    	-70.023865  
 82   	3.6404    	-70.383240  
 83   	3.6854    	-70.095764  
 84   	3.7303    	-70.742615  
 85   	3.7753    	-70.383240  
 86   	3.8202    	-69.808296  
 87   	3.8652    	-69.448914  
 88   	3.9101    	-69.520760  
 89   	3.9551    	-68.586365  
 90   	4.0000    	-68.730171  
 91   	4.0449    	-69.161377  
 92   	4.0899    	-68.586365  
 93   	4.1348    	-69.017639  
 94   	4.1798    	-68.873901  
 95   	4.2247    	-68.586365  
 96   	4.2697    	-68.730171  
 97   	4.3146    	-68.011414  
 98   	4.3596    	-67.580139  
 99   	4.4045    	-68.442635  
 100  	4.4494    	-68.945740  
 101  	4.4944    	-68.658264  
 102  	4.5393    	-68.730171  
 103  	4.5843    	-68.155151  
 104  	4.6292    	-67.867615  
 105  	4.6742    	-68.586365  
 106  	4.7191    	-68.155151  
 107  	4.7640    	-67.652046  
 108  	4.8090    	-68.370789  
 109  	4.8539    	-68.802002  
 110  	4.8989    	-68.945740  
 111  	4.9438    	-68.370789  
 112  	4.9888    	-68.730171  
 113  	5.0337    	-69.161377  
 114  	5.0787    	-68.945740  
 115  	5.1236    	-68.945740  
 116  	5.1685    	-69.233276  
 117  	5.2135    	-69.377014  
 118  	5.2584    	-69.880127  
 119  	5.3034    	-69.736389  
 120  	5.3483    	-69.161377  
 121  	5.3933    	-69.233276  
 122  	5.4382    	-68.442635  
 123  	5.4831    	-68.873901  
 124  	5.5281    	-69.089539  
 125  	5.5730    	-69.664490  
 126  	5.6180    	-69.664490  
 127  	5.6629    	-68.945740  
 128  	5.7079    	-69.592651  
 129  	5.7528    	-69.161377  
 130  	5.7978    	-69.592651  
 131  	5.8427    	-69.305115  
 132  	5.8876    	-68.802002  
 133  	5.9326    	-69.017639  
 134  	5.9775    	-68.945740  
 135  	6.0225    	-69.880127  
 136  	6.0674    	-68.730171  
 137  	6.1124    	-68.945740  
 138  	6.1573    	-68.514526  
 139  	6.2022    	-68.730171  
 140  	6.2472    	-68.442635  
 141  	6.2921    	-67.939514  
 142  	6.3371    	-67.580139  
 143  	6.3820    	-68.370789  
 144  	6.4270    	-68.155151  
 145  	6.4719    	-68.658264  
 146  	6.5169    	-68.514526  
 147  	6.5618    	-67.580139  
 148  	6.6067    	-68.011414  
 149  	6.6517    	-69.089539  
 150  	6.6966    	-69.664490  
 151  	6.7416    	-69.880127  
 152  	6.7865    	-69.808296  
 153  	6.8315    	-69.448914  
 154  	6.8764    	-69.520760  
 155  	6.9213    	-69.305115  
 156  	6.9663    	-69.448914  
 157  	7.0112    	-69.592651  
 158  	7.0562    	-69.305115  
 159  	7.1011    	-69.736389  
 160  	7.1461    	-69.161377  
 161  	7.1910    	-68.442635  
 162  	7.2360    	-69.161377  
 163  	7.2809    	-68.802002  
 164  	7.3258    	-69.664490  
 165  	7.3708    	-68.945740  
 166  	7.4157    	-69.664490  
 167  	7.4607    	-69.089539  
 168  	7.5056    	-69.736389  
 169  	7.5506    	-69.089539  
 170  	7.5955    	-68.730171  
 171  	7.6404    	-69.808296  
 172  	7.6854    	-69.664490  
 173  	7.7303    	-68.945740  
 174  	7.7753    	-68.873901  
 175  	7.8202    	-69.448914  
 176  	7.8652    	-69.233276  
 177  	7.9101    	-68.873901  
 178  	7.9551    	-68.658264  
 179  	8.0000    	-68.945740  
 180  	8.0449    	-67.939514  
 181  	8.0899    	-69.161377  
 182  	8.1348    	-68.586365  
 183  	8.1798    	-68.945740  
 184  	8.2247    	-69.520760  
 185  	8.2697    	-69.520760  
 186  	8.3146    	-69.952026  
 187  	8.3596    	-69.017639  
 188  	8.4045    	-68.945740  
 189  	8.4494    	-69.305115  
 190  	8.4944    	-68.945740  
 191  	8.5393    	-69.017639  
 192  	8.5843    	-69.233276  
 193  	8.6292    	-68.298889  
 194  	8.6742    	-68.514526  
 195  	8.7191    	-67.939514  
 196  	8.7640    	-69.161377  
 197  	8.8090    	-69.377014  
 198  	8.8539    	-69.305115  
 199  	8.8989    	-69.161377  
 200  	8.9438    	-69.161377  
 201  	8.9888    	-68.730171  
 202  	9.0337    	-68.226990  
 203  	9.0787    	-67.795776  
 204  	9.1236    	-68.226990  
 205  	9.1685    	-68.586365  
 206  	9.2135    	-68.370789  
 207  	9.2584    	-67.939514  
 208  	9.3034    	-68.586365  
 209  	9.3483    	-69.089539  
 210  	9.3933    	-68.658264  
 211  	9.4382    	-69.952026  
 212  	9.4831    	-70.167664  
 213  	9.5281    	-69.017639  
 214  	9.5730    	-69.161377  
 215  	9.6180    	-68.658264  
 216  	9.6629    	-68.945740  
 217  	9.7079    	-68.873901  
 218  	9.7528    	-68.586365  
 219  	9.7978    	-68.658264  
 220  	9.8427    	-68.586365  
 221  	9.8876    	-68.442635  
 222  	9.9326    	-69.520760  
 223  	9.9775    	-69.089539  
 224  	10.0225   	-69.161377  
 225  	10.0674   	-69.161377  
 226  	10.1124   	-68.658264  
 227  	10.1573   	-68.298889  
 228  	10.2022   	-68.083252  
 229  	10.2472   	-69.305115  
 230  	10.2921   	-70.455139  
 231  	10.3371   	-69.736389  
 232  	10.3820   	-69.089539  
 233  	10.4270   	-67.795776  
 234  	10.4719   	-69.161377  
 235  	10.5169   	-68.802002  
 236  	10.5618   	-68.586365  
 237  	10.6067   	-68.370789  
 238  	10.6517   	-67.939514  
 239  	10.6966   	-68.298889  
 240  	10.7416   	-69.161377  
 241  	10.7865   	-68.658264  
 242  	10.8315   	-67.723877  
 243  	10.8764   	-68.586365  
 244  	10.9213   	-69.592651  
 245  	10.9663   	-70.239502  
 246  	11.0112   	-68.730171  
 247  	11.0562   	-69.664490  
 248  	11.1011   	-68.945740  
 249  	11.1461   	-69.736389  
 250  	11.1910   	-70.239502  
 251  	11.2360   	-69.017639  
 252  	11.2809   	-69.017639  
 253  	11.3258   	-68.730171  
 254  	11.3708   	-68.802002  
 255  	11.4157   	-68.442635  
 256  	11.4607   	-68.442635  
 257  	11.5056   	-67.939514  
 258  	11.5506   	-68.586365  
 259  	11.5955   	-68.442635  
 260  	11.6404   	-69.592651  
 261  	11.6854   	-69.592651  
 262  	11.7303   	-69.377014  
 263  	11.7753   	-68.802002  
 264  	11.8202   	-68.945740  
 265  	11.8652   	-68.586365  
 266  	11.9101   	-68.370789  
 267  	11.9551   	-67.795776  
 268  	12.0000   	-68.370789  
 269  	12.0449   	-68.370789  
 270  	12.0899   	-68.730171  
 271  	12.1348   	-68.802002  
 272  	12.1798   	-68.514526  
 273  	12.2247   	-67.436401  
 274  	12.2697   	-67.364510  
 275  	12.3146   	-68.442635  
 276  	12.3596   	-69.520760  
 277  	12.4045   	-68.730171  
 278  	12.4494   	-69.377014  
 279  	12.4944   	-69.089539  
 280  	12.5393   	-69.377014  
 281  	12.5843   	-69.448914  
 282  	12.6292   	-68.730171  
 283  	12.6742   	-69.089539  
 284  	12.7191   	-68.370789  
 285  	12.7640   	-69.089539  
 286  	12.8090   	-68.945740  
 287  	12.8539   	-69.017639  
 288  	12.8989   	-68.802002  
 289  	12.9438   	-68.083252  
 290  	12.9888   	-67.580139  
 291  	13.0337   	-68.370789  
 292  	13.0787   	-67.220764  
 293  	13.1236   	-67.939514  
 294  	13.1685   	-68.083252  
 295  	13.2135   	-68.586365  
 296  	13.2584   	-67.939514  
 297  	13.3034   	-67.867615  
 298  	13.3483   	-69.017639  
 299  	13.3933   	-68.298889  
 300  	13.4382   	-68.083252  
 301  	13.4831   	-68.011414  
 302  	13.5281   	-68.442635  
 303  	13.5730   	-68.586365  
 304  	13.6180   	-68.083252  
 305  	13.6629   	-68.514526  
 306  	13.7079   	-68.730171  
 307  	13.7528   	-69.592651  
 308  	13.7978   	-69.736389  
 309  	13.8427   	-69.233276  
 310  	13.8876   	-69.808296  
 311  	13.9326   	-70.239502  
 312  	13.9775   	-69.089539  
 313  	14.0225   	-68.802002  
 314  	14.0674   	-69.736389  
 315  	14.1124   	-69.161377  
 316  	14.1573   	-68.226990  
 317  	14.2022   	-68.514526  
 318  	14.2472   	-69.520760  
 319  	14.2921   	-69.233276  
 320  	14.3371   	-69.305115  
 321  	14.3820   	-69.952026  
 322  	14.4270   	-69.808296  
 323  	14.4719   	-68.658264  
 324  	14.5169   	-68.873901  
 325  	14.5618   	-68.586365  
 326  	14.6067   	-68.011414  
 327  	14.6517   	-67.939514  
 328  	14.6966   	-67.723877  
 329  	14.7416   	-68.873901  
 330  	14.7865   	-68.586365  
 331  	14.8315   	-67.867615  
 332  	14.8764   	-67.723877  
 333  	14.9213   	-68.155151  
 334  	14.9663   	-68.155151  
 335  	15.0112   	-68.226990  
 336  	15.0562   	-67.077026  
 337  	15.1011   	-68.370789  
 338  	15.1461   	-68.083252  
 339  	15.1910   	-67.795776  
 340  	15.2360   	-68.011414  
 341  	15.2809   	-68.226990  
 342  	15.3258   	-69.377014  
 343  	15.3708   	-69.448914  
 344  	15.4157   	-69.305115  
 345  	15.4607   	-68.514526  
 346  	15.5056   	-68.370789  
 347  	15.5506   	-68.370789  
 348  	15.5955   	-68.442635  
 349  	15.6404   	-70.239502  
 350  	15.6854   	-69.305115  
 351  	15.7303   	-69.233276  
 352  	15.7753   	-69.520760  
 353  	15.8202   	-70.455139  
 354  	15.8652   	-70.598885  
 355  	15.9101   	-70.670776  
 356  	15.9551   	-70.527039  
 357  	16.0000   	-69.736389  
 358  	16.0449   	-69.161377  
 359  	16.0899   	-69.161377  
 360  	16.1348   	-69.233276  
 361  	16.1798   	-69.233276  
 362  	16.2247   	-69.089539  
 363  	16.2697   	-69.664490  
 364  	16.3146   	-68.442635  
 365  	16.3596   	-68.873901  
 366  	16.4045   	-69.017639  
 367  	16.4494   	-68.442635  
 368  	16.4944   	-68.011414  
 369  	16.5393   	-68.514526  
 370  	16.5843   	-68.155151  
 371  	16.6292   	-69.161377  
 372  	16.6742   	-68.730171  
 373  	16.7191   	-69.664490  
 374  	16.7640   	-69.017639  
 375  	16.8090   	-69.592651  
 376  	16.8539   	-69.448914  
 377  	16.8989   	-69.664490  
 378  	16.9438   	-69.233276  
 379  	16.9888   	-69.377014  
 380  	17.0337   	-70.023865  
 381  	17.0787   	-68.586365  
 382  	17.1236   	-68.155151  
 383  	17.1685   	-68.730171  
 384  	17.2135   	-69.161377  
 385  	17.2584   	-69.089539  
 386  	17.3034   	-69.017639  
 387  	17.3483   	-68.298889  
 388  	17.3933   	-67.795776  
 389  	17.4382   	-68.658264  
 390  	17.4831   	-68.802002  
 391  	17.5281   	-68.370789  
 392  	17.5730   	-68.226990  
 393  	17.6180   	-69.161377  
 394  	17.6629   	-69.017639  
 395  	17.7079   	-68.658264  
 396  	17.7528   	-68.802002  
 397  	17.7978   	-68.730171  
 398  	17.8427   	-69.089539  
 399  	17.8876   	-68.945740  
 400  	17.9326   	-68.658264  
 401  	17.9775   	-68.155151  
 402  	18.0225   	-69.089539  
 403  	18.0674   	-68.226990  
 404  	18.1124   	-68.298889  
 405  	18.1573   	-67.867615  
 406  	18.2022   	-68.370789  
 407  	18.2472   	-67.652046  
 408  	18.2921   	-67.580139  
 409  	18.3371   	-68.226990  
 410  	18.3820   	-68.658264  
 411  	18.4270   	-69.089539  
 412  	18.4719   	-68.370789  
 413  	18.5169   	-68.945740  
 414  	18.5618   	-67.867615  
 415  	18.6067   	-68.083252  
 416  	18.6517   	-68.298889  
 417  	18.6966   	-68.658264  
 418  	18.7416   	-68.802002  
 419  	18.7865   	-69.161377  
 420  	18.8315   	-67.795776  
 421  	18.8764   	-68.658264  
 422  	18.9213   	-69.161377  
 423  	18.9663   	-68.586365  
 424  	19.0112   	-69.448914  
 425  	19.0562   	-68.226990  
 426  	19.1011   	-67.148865  
 427  	19.1461   	-67.723877  
 428  	19.1910   	-66.861389  
 429  	19.2360   	-68.370789  
 430  	19.2809   	-67.939514  
 431  	19.3258   	-67.220764  
 432  	19.3708   	-67.580139  
 433  	19.4157   	-67.652046  
 434  	19.4607   	-67.867615  
 435  	19.5056   	-68.730171  
 436  	19.5506   	-68.945740  
 437  	19.5955   	-68.226990  
 438  	19.6404   	-67.939514  
 439  	19.6854   	-67.795776  
 440  	19.7303   	-68.802002  
 441  	19.7753   	-68.155151  
 442  	19.8202   	-68.514526  
 443  	19.8652   	-68.226990  
 444  	19.9101   	-68.945740  
 445  	19.9551   	-68.442635  
 446  	20.0000   	-68.730171  
 447  	20.0449   	-68.083252  
 448  	20.0899   	-68.514526  
 449  	20.1348   	-68.802002  
 450  	20.1798   	-69.305115  
 451  	20.2247   	-69.808296  
 452  	20.2697   	-68.730171  
 453  	20.3146   	-69.305115  
 454  	20.3596   	-69.161377  
 455  	20.4045   	-68.730171  
 456  	20.4494   	-68.586365  
 457  	20.4944   	-68.155151  
 458  	20.5393   	-69.305115  
 459  	20.5843   	-69.161377  
 460  	20.6292   	-69.017639  
 461  	20.6742   	-69.017639  
 462  	20.7191   	-69.952026  
 463  	20.7640   	-69.161377  
 464  	20.8090   	-68.873901  
 465  	20.8539   	-68.945740  
 466  	20.8989   	-68.586365  
 467  	20.9438   	-68.155151  
 468  	20.9888   	-68.370789  
 469  	21.0337   	-68.083252  
 470  	21.0787   	-68.514526  
 471  	21.1236   	-68.298889  
 472  	21.1685   	-68.442635  
 473  	21.2135   	-68.226990  
 474  	21.2584   	-69.233276  
 475  	21.3034   	-68.873901  
 476  	21.3483   	-69.017639  
 477  	21.3933   	-68.730171  
 478  	21.4382   	-68.802002  
 479  	21.4831   	-68.514526  
 480  	21.5281   	-69.880127  
 481  	21.5730   	-69.017639  
 482  	21.6180   	-69.233276  
 483  	21.6629   	-69.017639  
 484  	21.7079   	-68.945740  
 485  	21.7528   	-68.155151  
 486  	21.7978   	-67.795776  
 487  	21.8427   	-68.155151  
 488  	21.8876   	-68.011414  
 489  	21.9326   	-67.652046  
 490  	21.9775   	-68.945740  
 491  	22.0225   	-69.089539  
 492  	22.0674   	-68.298889  
 493  	22.1124   	-68.514526  
 494  	22.1573   	-68.514526  
 495  	22.2022   	-67.939514  
 496  	22.2472   	-67.508240  
 497  	22.2921   	-69.089539  
 498  	22.3371   	-68.083252  
 499  	22.3820   	-67.508240  
 500  	22.4270   	-67.723877  
 501  	22.4719   	-68.873901  
 502  	22.5169   	-68.155151  
 503  	22.5618   	-69.233276  
 504  	22.6067   	-68.873901  
 505  	22.6517   	-69.592651  
 506  	22.6966   	-68.873901  
 507  	22.7416   	-69.736389  
 508  	22.7865   	-68.730171  
 509  	22.8315   	-68.586365  
 510  	22.8764   	-68.155151  
 511  	22.9213   	-68.514526  
 512  	22.9663   	-68.514526  
 513  	23.0112   	-68.370789  
 514  	23.0562   	-68.298889  
 515  	23.1011   	-68.083252  
 516  	23.1461   	-68.083252  
 517  	23.1910   	-68.802002  
 518  	23.2360   	-68.370789  
 519  	23.2809   	-68.873901  
 520  	23.3258   	-68.298889  
 521  	23.3708   	-68.514526  
 522  	23.4157   	-67.508240  
 523  	23.4607   	-67.867615  
 524  	23.5056   	-68.298889  
 525  	23.5506   	-68.083252  
 526  	23.5955   	-67.580139  
 527  	23.6404   	-68.083252  
 528  	23.6854   	-67.795776  
 529  	23.7303   	-67.867615  
 530  	23.7753   	-67.939514  
 531  	23.8202   	-68.586365  
 532  	23.8652   	-67.795776  
 533  	23.9101   	-67.292664  
 534  	23.9551   	-67.867615  
 535  	24.0000   	-68.083252  
 536  	24.0449   	-67.148865  
 537  	24.0899   	-68.298889  
 538  	24.1348   	-67.723877  
 539  	24.1798   	-67.867615  
 540  	24.2247   	-68.083252  
 541  	24.2697   	-66.789490  
 542  	24.3146   	-67.436401  
 543  	24.3596   	-68.298889  
 544  	24.4045   	-68.083252  
 545  	24.4494   	-67.795776  
 546  	24.4944   	-68.011414  
 547  	24.5393   	-67.652046  
 548  	24.5843   	-67.292664  
 549  	24.6292   	-67.220764  
 550  	24.6742   	-66.861389  
 551  	24.7191   	-68.011414  
 552  	24.7640   	-66.430115  
 553  	24.8090   	-66.717651  
 554  	24.8539   	-66.214539  
 555  	24.8989   	-65.495789  
 556  	24.9438   	-65.351990  
 557  	24.9888   	-64.777039  
 558  	25.0337   	-63.411377  
 559  	25.0787   	-61.830139  
 560  	25.1236   	-60.823914  
 561  	25.1685   	-58.092651  
 562  	25.2135   	-57.517639  
 563  	25.2584   	-56.942627  
 564  	25.3034   	-56.655151  
 565  	25.3483   	-56.439514  
 566  	25.3933   	-55.289490  
 567  	25.4382   	-53.205139  
 568  	25.4831   	-46.664490  
 569  	25.5281   	-22.802004  
 570  	25.5730   	0.197937    
 571  	25.6180   	15.435487   
 572  	25.6629   	28.732363   
 573  	25.7079   	36.926086   
 574  	25.7528   	44.329285   
 575  	25.7978   	48.497990   
 576  	25.8427   	51.229191   
 577  	25.8876   	54.607361   
 578  	25.9326   	56.404236   
 579  	25.9775   	57.338566   
 580  	26.0225   	58.991764   
 581  	26.0674   	60.141788   
 582  	26.1124   	61.507389   
 583  	26.1573   	62.369812   
 584  	26.2022   	62.872986   
 585  	26.2472   	63.304264   
 586  	26.2921   	64.166687   
 587  	26.3371   	64.382385   
 588  	26.3820   	64.669861   
 589  	26.4270   	64.885437   
 590  	26.4719   	65.029236   
 591  	26.5169   	64.166687   
 592  	26.5618   	65.029236   
 593  	26.6067   	65.963562   
 594  	26.6517   	65.532410   
 595  	26.6966   	65.101135   
 596  	26.7416   	65.173035   
 597  	26.7865   	65.747986   
 598  	26.8315   	65.316711   
 599  	26.8764   	66.682312   
 600  	26.9213   	66.682312   
 601  	26.9663   	66.682312   
 602  	27.0112   	67.041687   
 603  	27.0562   	67.472961   
 604  	27.1011   	68.622986   
 605  	27.1461   	68.766785   
 606  	27.1910   	68.694885   
 607  	27.2360   	67.976135   
 608  	27.2809   	67.472961   
 609  	27.3258   	68.838562   
 610  	27.3708   	69.341736   
 611  	27.4157   	68.694885   
 612  	27.4607   	69.269844   
 613  	27.5056   	69.701111   
 614  	27.5506   	69.126160   
 615  	27.5955   	69.844910   
 616  	27.6404   	68.910461   
 617  	27.6854   	68.407410   
 618  	27.7303   	68.479187   
 619  	27.7753   	69.773010   
 620  	27.8202   	69.413635   
 621  	27.8652   	70.491760   
 622  	27.9101   	70.923035   
 623  	27.9551   	71.066711   
 624  	28.0000   	71.569885   
 625  	28.0449   	70.707336   
 626  	28.0899   	70.419861   
 627  	28.1348   	70.132385   
 628  	28.1798   	69.916687   
 629  	28.2247   	70.347969   
 630  	28.2697   	70.491760   
 631  	28.3146   	70.779236   
 632  	28.3596   	71.138611   
 633  	28.4045   	70.204285   
 634  	28.4494   	69.629211   
 635  	28.4944   	68.838562   
 636  	28.5393   	69.269844   
 637  	28.5843   	69.126160   
 638  	28.6292   	69.341736   
 639  	28.6742   	69.844910   
 640  	28.7191   	68.694885   
 641  	28.7640   	68.119812   
 642  	28.8090   	68.119812   
 643  	28.8539   	67.976135   
 644  	28.8989   	68.048035   
 645  	28.9438   	68.838562   
 646  	28.9888   	69.629211   
 647  	29.0337   	69.629211   
 648  	29.0787   	69.701111   
 649  	29.1236   	69.844910   
 650  	29.1685   	69.485535   
 651  	29.2135   	70.060486   
 652  	29.2584   	70.347969   
 653  	29.3034   	70.060486   
 654  	29.3483   	70.563660   
 655  	29.3933   	69.916687   
 656  	29.4382   	70.491760   
 657  	29.4831   	70.563660   
 658  	29.5281   	71.641785   
 659  	29.5730   	70.635437   
 660  	29.6180   	70.491760   
 661  	29.6629   	71.569885   
 662  	29.7079   	71.282410   
 663  	29.7528   	70.923035   
 664  	29.7978   	71.210510   
 665  	29.8427   	71.497986   
 666  	29.8876   	70.707336   
 667  	29.9326   	72.001160   
 668  	29.9775   	70.923035   
 669  	30.0225   	70.635437   
 670  	30.0674   	70.276062   
 671  	30.1124   	71.138611   
 672  	30.1573   	70.994812   
 673  	30.2022   	71.569885   
 674  	30.2472   	70.635437   
 675  	30.2921   	70.994812   
 676  	30.3371   	71.066711   
 677  	30.3820   	70.276062   
 678  	30.4270   	69.485535   
 679  	30.4719   	69.844910   
 680  	30.5169   	69.629211   
 681  	30.5618   	69.629211   
 682  	30.6067   	68.982361   
 683  	30.6517   	68.910461   
 684  	30.6966   	68.551086   
 685  	30.7416   	68.263611   
 686  	30.7865   	68.766785   
 687  	30.8315   	69.341736   
 688  	30.8764   	70.347969   
 689  	30.9213   	70.132385   
 690  	30.9663   	69.844910   
 691  	31.0112   	70.851135   
 692  	31.0562   	70.276062   
 693  	31.1011   	70.491760   
 694  	31.1461   	68.838562   
 695  	31.1910   	69.341736   
 696  	31.2360   	68.910461   
 697  	31.2809   	69.557312   
 698  	31.3258   	69.773010   
 699  	31.3708   	70.276062   
 700  	31.4157   	70.204285   
 701  	31.4607   	70.276062   
 702  	31.5056   	70.419861   
 703  	31.5506   	70.419861   
 704  	31.5955   	71.354187   
 705  	31.6404   	69.844910   
 706  	31.6854   	69.557312   
 707  	31.7303   	68.910461   
 708  	31.7753   	69.197937   
 709  	31.8202   	68.551086   
 710  	31.8652   	68.910461   
 711  	31.9101   	70.204285   
 712  	31.9551   	69.988586   
 713  	32.0000   	70.851135   
 714  	32.0449   	70.204285   
 715  	32.0899   	69.773010   
 716  	32.1348   	70.276062   
 717  	32.1798   	70.635437   
 718  	32.2247   	70.707336   
 719  	32.2697   	69.773010   
 720  	32.3146   	69.269844   
 721  	32.3596   	68.694885   
 722  	32.4045   	68.048035   
 723  	32.4494   	68.551086   
 724  	32.4944   	68.407410   
 725  	32.5393   	66.826111   
 726  	32.5843   	67.041687   
 727  	32.6292   	67.401062   
 728  	32.6742   	67.688660   
 729  	32.7191   	67.472961   
 730  	32.7640   	68.335510   
 731  	32.8090   	67.185486   
 732  	32.8539   	67.472961   
 733  	32.8989   	67.329285   
 734  	32.9438   	67.472961   
 735  	32.9888   	67.041687   
 736  	33.0337   	66.251160   
 737  	33.0787   	66.466736   
 738  	33.1236   	67.472961   
 739  	33.1685   	67.616760   
 740  	33.2135   	67.257385   
 741  	33.2584   	66.754211   
 742  	33.3034   	66.394836   
 743  	33.3483   	66.035469   
 744  	33.3933   	65.891785   
 745  	33.4382   	66.538635   
 746  	33.4831   	66.394836   
 747  	33.5281   	65.819893   
 748  	33.5730   	65.819893   
 749  	33.6180   	66.538635   
 750  	33.6629   	66.466736   
 751  	33.7079   	66.610535   
 752  	33.7528   	66.682312   
 753  	33.7978   	66.179260   
 754  	33.8427   	66.107361   
 755  	33.8876   	66.179260   
 756  	33.9326   	67.113594   
 757  	33.9775   	67.185486   
 758  	34.0225   	66.610535   
 759  	34.0674   	67.544861   
 760  	34.1124   	66.610535   
 761  	34.1573   	66.322937   
 762  	34.2022   	66.322937   
 763  	34.2472   	66.322937   
 764  	34.2921   	66.107361   
 765  	34.3371   	65.604187   
 766  	34.3820   	65.963562   
 767  	34.4270   	65.532410   
 768  	34.4719   	65.676086   
 769  	34.5169   	65.388611   
 770  	34.5618   	65.460510   
 771  	34.6067   	66.251160   
 772  	34.6517   	66.682312   
 773  	34.6966   	66.898018   
 774  	34.7416   	68.407410   
 775  	34.7865   	67.616760   
 776  	34.8315   	66.826111   
 777  	34.8764   	66.538635   
 778  	34.9213   	66.538635   
 779  	34.9663   	66.969910   
 780  	35.0112   	65.963562   
 781  	35.0562   	66.179260   
 782  	35.1011   	65.388611   
 783  	35.1461   	64.813660   
 784  	35.1910   	66.969910   
 785  	35.2360   	66.826111   
 786  	35.2809   	66.898018   
 787  	35.3258   	66.251160   
 788  	35.3708   	66.179260   
 789  	35.4157   	65.819893   
 790  	35.4607   	65.244812   
 791  	35.5056   	66.322937   
 792  	35.5506   	66.035469   
 793  	35.5955   	66.969910   
 794  	35.6404   	65.963562   
 795  	35.6854   	67.185486   
 796  	35.7303   	66.251160   
 797  	35.7753   	65.747986   
 798  	35.8202   	65.532410   
 799  	35.8652   	64.669861   
 800  	35.9101   	63.735535   
 801  	35.9551   	63.591740   
 802  	36.0000   	65.604187   
 803  	36.0449   	66.107361   
 804  	36.0899   	64.957344   
 805  	36.1348   	64.094910   
 806  	36.1798   	62.657410   
 807  	36.2247   	61.651066   
 808  	36.2697   	61.507389   
 809  	36.3146   	60.860535   
 810  	36.3596   	60.572941   
 811  	36.4045   	59.494816   
 812  	36.4494   	58.488590   
 813  	36.4944   	57.482361   
 814  	36.5393   	56.619812   
 815  	36.5843   	56.548035   
 816  	36.6292   	55.326111   
 817  	36.6742   	54.679260   
 818  	36.7191   	53.673038   
 819  	36.7640   	52.738586   
 820  	36.8090   	50.726139   
 821  	36.8539   	50.007385   
 822  	36.8989   	49.935486   
 823  	36.9438   	49.576115   
 824  	36.9888   	49.072941   
 825  	37.0337   	49.504211   
 826  	37.0787   	48.641785   
 827  	37.1236   	47.563660   
 828  	37.1685   	46.844910   
 829  	37.2135   	45.910461   
 830  	37.2584   	45.048038   
 831  	37.3034   	44.544861   
 832  	37.3483   	43.538639   
 833  	37.3933   	43.035461   
 834  	37.4382   	42.676086   
 835  	37.4831   	41.238586   
 836  	37.5281   	40.447937   
 837  	37.5730   	38.794861   
 838  	37.6180   	38.076111   
 839  	37.6629   	36.710510   
 840  	37.7079   	35.991760   
 841  	37.7528   	35.273010   
 842  	37.7978   	34.769840   
 843  	37.8427   	32.901062   
 844  	37.8876   	30.744812   
 845  	37.9326   	29.810488   
 846  	37.9775   	29.091738   
 847  	38.0225   	27.582336   
 848  	38.0674   	25.857361   
 849  	38.1124   	25.066713   
 850  	38.1573   	24.635439   
 851  	38.2022   	23.413635   
 852  	38.2472   	23.054260   
 853  	38.2921   	22.910463   
 854  	38.3371   	21.616760   
 855  	38.3820   	19.891785   
 856  	38.4270   	18.885437   
 857  	38.4719   	18.166689   
 858  	38.5169   	16.441713   
 859  	38.5618   	15.076111   
 860  	38.6067   	13.279237   
 861  	38.6517   	12.776063   
 862  	38.6966   	10.907410   
 863  	38.7416   	10.044861   
 864  	38.7865   	7.816711    
 865  	38.8315   	5.947937    
 866  	38.8764   	4.294861    
 867  	38.9213   	3.432312    
 868  	38.9663   	1.204285    
 869  	39.0112   	-0.233215   
 870  	39.0562   	-1.023865   
 871  	39.1011   	-3.036377   
 872  	39.1461   	-4.186401   
 873  	39.1910   	-6.773865   
 874  	39.2360   	-7.564515   
 875  	39.2809   	-10.080139  
 876  	39.3258   	-10.942627  
 877  	39.3708   	-12.811401  
 878  	39.4157   	-13.170776  
 879  	39.4607   	-15.470765  
 880  	39.5056   	-16.980164  
 881  	39.5506   	-19.208252  
 882  	39.5955   	-19.567627  
 883  	39.6404   	-21.005127  
 884  	39.6854   	-22.011414  
 885  	39.7303   	-23.377014  
 886  	39.7753   	-24.814514  
 887  	39.8202   	-25.030151  
 888  	39.8652   	-26.539490  
 889  	39.9101   	-27.042664  
 890  	39.9551   	-28.552004  
 891  	40.0000   	-29.198914  
 892  	40.0449   	-29.702026  
 893  	40.0899   	-30.348877  
 894  	40.1348   	-31.642641  
 895  	40.1798   	-33.152039  
 896  	40.2247   	-33.655151  
 897  	40.2697   	-33.367615  
 898  	40.3146   	-34.445740  
 899  	40.3596   	-35.739502  
 900  	40.4045   	-35.739502  
 901  	40.4494   	-36.673889  
 902  	40.4944   	-37.105164  
 903  	40.5393   	-38.542667  
 904  	40.5843   	-40.052002  
 905  	40.6292   	-40.555115  
 906  	40.6742   	-41.992619  
 907  	40.7191   	-43.645752  
 908  	40.7640   	-45.083256  
 909  	40.8090   	-44.508240  
 910  	40.8539   	-46.089542  
 911  	40.8989   	-47.167667  
 912  	40.9438   	-48.173889  
 913  	40.9888   	-48.030151  
 914  	41.0337   	-49.323917  
 915  	41.0787   	-50.042664  
 916  	41.1236   	-51.264526  
 917  	41.1685   	-52.630127  
 918  	41.2135   	-53.995789  
 919  	41.2584   	-54.930119  
 920  	41.3034   	-56.439514  
 921  	41.3483   	-56.870792  
 922  	41.3933   	-57.517639  
 923  	41.4382   	-57.948917  
 924  	41.4831   	-58.739506  
 925  	41.5281   	-58.883240  
 926  	41.5730   	-58.523865  
 927  	41.6180   	-59.170776  
 928  	41.6629   	-58.595764  
 929  	41.7079   	-59.170776  
 930  	41.7528   	-59.673889  
 931  	41.7978   	-59.314514  
 932  	41.8427   	-59.601990  
 933  	41.8876   	-59.601990  
 934  	41.9326   	-59.961365  
 935  	41.9775   	-60.392639  
 936  	42.0225   	-60.105167  
 937  	42.0674   	-61.183292  
 938  	42.1124   	-61.830139  
 939  	42.1573   	-62.764530  
 940  	42.2022   	-63.052006  
 941  	42.2472   	-63.770756  
 942  	42.2921   	-64.345764  
 943  	42.3371   	-64.561401  
 944  	42.3820   	-64.345764  
 945  	42.4270   	-65.280151  
 946  	42.4719   	-65.136414  
 947  	42.5169   	-65.783264  
 948  	42.5618   	-65.567627  
 949  	42.6067   	-65.351990  
 950  	42.6517   	-65.639526  
 951  	42.6966   	-66.502014  
 952  	42.7416   	-66.502014  
 953  	42.7865   	-66.070740  
 954  	42.8315   	-66.430115  
 955  	42.8764   	-67.005127  
 956  	42.9213   	-67.077026  
 957  	42.9663   	-66.861389  
 958  	43.0112   	-66.717651  
 959  	43.0562   	-67.364510  
 960  	43.1011   	-67.220764  
 961  	43.1461   	-67.292664  
 962  	43.1910   	-67.723877  
 963  	43.2360   	-68.226990  
 964  	43.2809   	-68.298889  
 965  	43.3258   	-68.011414  
 966  	43.3708   	-66.861389  
 967  	43.4157   	-66.933289  
 968  	43.4607   	-66.645752  
 969  	43.5056   	-65.927002  
 970  	43.5506   	-65.423889  
 971  	43.5955   	-65.351990  
 972  	43.6404   	-65.351990  
 973  	43.6854   	-68.370789  
 974  	43.7303   	-69.664490  
 975  	43.7753   	-67.005127  
 976  	43.8202   	-62.620789  
 977  	43.8652   	-57.805115  
 978  	43.9101   	-52.630127  
 979  	43.9551   	-50.689518  
 980  	44.0000   	-48.173889  
 981  	44.0449   	-47.958256  
 982  	44.0899   	-48.030151  
 983  	44.1348   	-47.239502  
 984  	44.1798   	-46.377018  
 985  	44.2247   	-45.586365  
 986  	44.2697   	-46.161377  
 987  	44.3146   	-44.436405  
 988  	44.3596   	-43.717651  
 989  	44.4045   	-43.142639  
 990  	44.4494   	-43.286377  
 991  	44.4944   	-42.711365  
 992  	44.5393   	-43.142639  
 993  	44.5843   	-43.861389  
 994  	44.6292   	-43.430115  
 995  	44.6742   	-44.508240  
 996  	44.7191   	-43.645752  
 997  	44.7640   	-43.573914  
 998  	44.8090   	-43.070744  
 999  	44.8539   	-42.567627  
 1000 	44.8989   	-43.070744  
 1001 	44.9438   	-42.783264  
 1002 	44.9888   	-42.064514  
 1003 	45.0337   	-41.920776  
 1004 	45.0787   	-42.711365  
 1005 	45.1236   	-42.927002  
 1006 	45.1685   	-42.639526  
 1007 	45.2135   	-41.848877  
 1008 	45.2584   	-41.633240  
 1009 	45.3034   	-40.698914  
 1010 	45.3483   	-42.567627  
 1011 	45.3933   	-41.633240  
 1012 	45.4382   	-42.208252  
 1013 	45.4831   	-42.783264  
 1014 	45.5281   	-42.567627  
 1015 	45.5730   	-43.286377  
 1016 	45.6180   	-42.495789  
 1017 	45.6629   	-41.273865  
 1018 	45.7079   	-41.417664  
 1019 	45.7528   	-41.848877  
 1020 	45.7978   	-41.130127  
 1021 	45.8427   	-41.489502  
 1022 	45.8876   	-40.698914  
 1023 	45.9326   	-41.058289  
 1024 	45.9775   	-40.483276  
 1025 	46.0225   	-39.620792  
 1026 	46.0674   	-39.548889  
 1027 	46.1124   	-38.542667  
 1028 	46.1573   	-37.536377  
 1029 	46.2022   	-36.817627  
 1030 	46.2472   	-36.314514  
 1031 	46.2921   	-35.020752  
 1032 	46.3371   	-34.805115  
 1033 	46.3820   	-32.577026  
 1034 	46.4270   	-20.789490  
 1035 	46.4719   	-12.092651  
 1036 	46.5169   	-7.780151   
 1037 	46.5618   	-6.486390   
 1038 	46.6067   	-6.917664   
 1039 	46.6517   	-9.002014   
 1040 	46.6966   	-10.655151  
 1041 	46.7416   	-13.027039  
 1042 	46.7865   	-15.614502  
 1043 	46.8315   	-18.705139  
 1044 	46.8764   	-20.573914  
 1045 	46.9213   	-22.514526  
 1046 	46.9663   	-24.311401  
 1047 	47.0112   	-25.317629  
 1048 	47.0562   	-27.042664  
 1049 	47.1011   	-28.192627  
 1050 	47.1461   	-29.989504  
 1051 	47.1910   	-30.636414  
 1052 	47.2360   	-32.505127  
 1053 	47.2809   	-34.373901  
 1054 	47.3258   	-34.445740  
 1055 	47.3708   	-33.942627  
 1056 	47.4157   	-34.445740  
 1057 	47.4607   	-35.164490  
 1058 	47.5056   	-34.877014  
 1059 	47.5506   	-35.595764  
 1060 	47.5955   	-35.236389  
 1061 	47.6404   	-36.027039  
 1062 	47.6854   	-36.458252  
 1063 	47.7303   	-37.392639  
 1064 	47.7753   	-37.823914  
 1065 	47.8202   	-38.183289  
 1066 	47.8652   	-38.470764  
 1067 	47.9101   	-38.183289  
 1068 	47.9551   	-37.967651  
 1069 	48.0000   	-37.464542  
 1070 	48.0449   	-37.895752  
 1071 	48.0899   	-37.680115  
 1072 	48.1348   	-37.967651  
 1073 	48.1798   	-38.470764  
 1074 	48.2247   	-38.470764  
 1075 	48.2697   	-38.686401  
 1076 	48.3146   	-38.111393  
 1077 	48.3596   	-38.111393  
 1078 	48.4045   	-38.183289  
 1079 	48.4494   	-38.327026  
 1080 	48.4944   	-38.111393  
 1081 	48.5393   	-38.902039  
 1082 	48.5843   	-38.973877  
 1083 	48.6292   	-38.902039  
 1084 	48.6742   	-39.189518  
 1085 	48.7191   	-38.830139  
 1086 	48.7640   	-40.267643  
 1087 	48.8090   	-40.123901  
 1088 	48.8539   	-40.483276  
 1089 	48.8989   	-40.555115  
 1090 	48.9438   	-40.195740  
 1091 	48.9888   	-40.195740  
 1092 	49.0337   	-39.836369  
 1093 	49.0787   	-40.411377  
 1094 	49.1236   	-40.267643  
 1095 	49.1685   	-39.405151  
 1096 	49.2135   	-39.692627  
 1097 	49.2584   	-39.189518  
 1098 	49.3034   	-39.764526  
 1099 	49.3483   	-39.980164  
 1100 	49.3933   	-40.339539  
 1101 	49.4382   	-39.908264  
 1102 	49.4831   	-40.483276  
 1103 	49.5281   	-40.483276  
 1104 	49.5730   	-40.555115  
 1105 	49.6180   	-40.483276  
 1106 	49.6629   	-39.908264  
 1107 	49.7079   	-39.836369  
 1108 	49.7528   	-39.548889  
 1109 	49.7978   	-38.973877  
 1110 	49.8427   	-40.339539  
 1111 	49.8876   	-40.195740  
 1112 	49.9326   	-40.986389  
 1113 	49.9775   	-40.123901  
 1114 	50.0225   	-39.836369  
 1115 	50.0674   	-40.123901  
 1116 	50.1124   	-39.405151  
 1117 	50.1573   	-39.908264  
 1118 	50.2022   	-40.698914  
 1119 	50.2472   	-40.627014  
 1120 	50.2921   	-40.411377  
 1121 	50.3371   	-39.405151  
 1122 	50.3820   	-40.267643  
 1123 	50.4270   	-40.914494  
 1124 	50.4719   	-41.058289  
 1125 	50.5169   	-41.058289  
 1126 	50.5618   	-40.914494  
 1127 	50.6067   	-40.123901  
 1128 	50.6517   	-40.627014  
 1129 	50.6966   	-40.555115  
 1130 	50.7416   	-40.842651  
 1131 	50.7865   	-41.561401  
 1132 	50.8315   	-41.273865  
 1133 	50.8764   	-41.273865  
 1134 	50.9213   	-40.842651  
 1135 	50.9663   	-40.483276  
 1136 	51.0112   	-40.052002  
 1137 	51.0562   	-40.195740  
 1138 	51.1011   	-39.620792  
 1139 	51.1461   	-40.339539  
 1140 	51.1910   	-39.476990  
 1141 	51.2360   	-39.764526  
 1142 	51.2809   	-40.123901  
 1143 	51.3258   	-40.339539  
 1144 	51.3708   	-40.770752  
 1145 	51.4157   	-40.986389  
 1146 	51.4607   	-40.770752  
 1147 	51.5056   	-41.058289  
 1148 	51.5506   	-40.339539  
 1149 	51.5955   	-40.339539  
 1150 	51.6404   	-41.345768  
 1151 	51.6854   	-41.777039  
 1152 	51.7303   	-40.986389  
 1153 	51.7753   	-41.920776  
 1154 	51.8202   	-41.489502  
 1155 	51.8652   	-41.417664  
 1156 	51.9101   	-40.986389  
 1157 	51.9551   	-40.483276  
 1158 	52.0000   	-40.698914  
 1159 	52.0449   	-40.770752  
 1160 	52.0899   	-40.842651  
 1161 	52.1348   	-41.058289  
 1162 	52.1798   	-40.267643  
 1163 	52.2247   	-40.411377  
 1164 	52.2697   	-40.123901  
 1165 	52.3146   	-40.195740  
 1166 	52.3596   	-40.555115  
 1167 	52.4045   	-40.411377  
 1168 	52.4494   	-40.627014  
 1169 	52.4944   	-40.195740  
 1170 	52.5393   	-40.627014  
 1171 	52.5843   	-41.489502  
 1172 	52.6292   	-41.202026  
 1173 	52.6742   	-41.273865  
 1174 	52.7191   	-40.986389  
 1175 	52.7640   	-41.058289  
 1176 	52.8090   	-40.842651  
 1177 	52.8539   	-41.058289  
 1178 	52.8989   	-41.130127  
 1179 	52.9438   	-40.842651  
 1180 	52.9888   	-40.770752  
 1181 	53.0337   	-41.992619  
 1182 	53.0787   	-42.064514  
 1183 	53.1236   	-41.992619  
 1184 	53.1685   	-41.489502  
 1185 	53.2135   	-41.130127  
 1186 	53.2584   	-42.136414  
 1187 	53.3034   	-41.848877  
 1188 	53.3483   	-40.914494  
 1189 	53.3933   	-40.842651  
 1190 	53.4382   	-40.986389  
 1191 	53.4831   	-42.783264  
 1192 	53.5281   	-43.430115  
 1193 	53.5730   	-45.730164  
 1194 	53.6180   	-47.311401  
 1195 	53.6629   	-48.964539  
 1196 	53.7079   	-49.323917  
 1197 	53.7528   	-48.245792  
 1198 	53.7978   	-45.298889  
 1199 	53.8427   	-45.083256  
 1200 	53.8876   	-44.436405  
 1201 	53.9326   	-40.483276  
 1202 	53.9775   	-35.811401  
 1203 	54.0225   	-32.720764  
 1204 	54.0674   	-31.714539  
 1205 	54.1124   	-31.427002  
 1206 	54.1573   	-33.152039  
 1207 	54.2022   	-36.098877  
 1208 	54.2472   	-38.398865  
 1209 	54.2921   	-40.483276  
 1210 	54.3371   	-41.633240  
 1211 	54.3820   	-40.914494  
 1212 	54.4270   	-40.627014  
 1213 	54.4719   	-39.189518  
 1214 	54.5169   	-40.052002  
 1215 	54.5618   	-41.130127  
 1216 	54.6067   	-41.633240  
 1217 	54.6517   	-42.136414  
 1218 	54.6966   	-42.639526  
 1219 	54.7416   	-42.064514  
 1220 	54.7865   	-41.848877  
 1221 	54.8315   	-43.214539  
 1222 	54.8764   	-44.077026  
 1223 	54.9213   	-44.436405  
 1224 	54.9663   	-45.155151  
 1225 	55.0112   	-45.442627  
 1226 	55.0562   	-45.298889  
 1227 	55.1011   	-44.867615  
 1228 	55.1461   	-44.364502  
 1229 	55.1910   	-43.717651  
 1230 	55.2360   	-43.861389  
 1231 	55.2809   	-44.364502  
 1232 	55.3258   	-45.083256  
 1233 	55.3708   	-45.442627  
 1234 	55.4157   	-46.233276  
 1235 	55.4607   	-46.089542  
 1236 	55.5056   	-45.370789  
 1237 	55.5506   	-45.873901  
 1238 	55.5955   	-46.520752  
 1239 	55.6405   	-46.520752  
 1240 	55.6854   	-46.161377  
 1241 	55.7303   	-46.880131  
 1242 	55.7753   	-47.311401  
 1243 	55.8202   	-47.455143  
 1244 	55.8652   	-47.598877  
 1245 	55.9101   	-47.814514  
 1246 	55.9551   	-47.455143  
 1247 	56.0000   	-47.167667  
 1248 	56.0449   	-47.742615  
 1249 	56.0899   	-47.742615  
 1250 	56.1348   	-48.461369  
 1251 	56.1798   	-48.461369  
 1252 	56.2247   	-48.964539  
 1253 	56.2697   	-49.395752  
 1254 	56.3146   	-48.892639  
 1255 	56.3596   	-48.605164  
 1256 	56.4045   	-48.748905  
 1257 	56.4494   	-48.748905  
 1258 	56.4944   	-49.683289  
 1259 	56.5393   	-50.473877  
 1260 	56.5843   	-50.833252  
 1261 	56.6292   	-51.552002  
 1262 	56.6742   	-52.198914  
 1263 	56.7191   	-52.630127  
 1264 	56.7640   	-53.061405  
 1265 	56.8090   	-52.486393  
 1266 	56.8539   	-52.917664  
 1267 	56.8989   	-52.414490  
 1268 	56.9438   	-52.270756  
 1269 	56.9888   	-52.342651  
 1270 	57.0337   	-52.198914  
 1271 	57.0787   	-53.564518  
 1272 	57.1236   	-53.780151  
 1273 	57.1685   	-54.427006  
 1274 	57.2135   	-53.923893  
 1275 	57.2584   	-54.642643  
 1276 	57.3034   	-55.073914  
 1277 	57.3483   	-55.217655  
 1278 	57.3933   	-55.361389  
 1279 	57.4382   	-55.648865  
 1280 	57.4831   	-56.008244  
 1281 	57.5281   	-55.648865  
 1282 	57.5730   	-56.295780  
 1283 	57.6180   	-56.152039  
 1284 	57.6629   	-56.511414  
 1285 	57.7079   	-56.942627  
 1286 	57.7528   	-57.877018  
 1287 	57.7978   	-58.236389  
 1288 	57.8427   	-59.170776  
 1289 	57.8876   	-59.961365  
 1290 	57.9326   	-60.105167  
 1291 	57.9775   	-59.889526  
 1292 	58.0225   	-59.242619  
 1293 	58.0674   	-59.889526  
 1294 	58.1124   	-59.745789  
 1295 	58.1573   	-60.177002  
 1296 	58.2022   	-60.320744  
 1297 	58.2472   	-60.536381  
 1298 	58.2921   	-60.248901  
 1299 	58.3371   	-60.608280  
 1300 	58.3820   	-61.830139  
 1301 	58.4270   	-61.973881  
 1302 	58.4719   	-62.333252  
 1303 	58.5169   	-61.542664  
 1304 	58.5618   	-61.327026  
 1305 	58.6067   	-62.476994  
 1306 	58.6517   	-62.548889  
 1307 	58.6966   	-62.836365  
 1308 	58.7416   	-62.980164  
 1309 	58.7865   	-63.123901  
 1310 	58.8315   	-63.195740  
 1311 	58.8764   	-62.908264  
 1312 	58.9213   	-63.195740  
 1313 	58.9663   	-64.345764  
 1314 	59.0112   	-64.273865  
 1315 	59.0562   	-64.202026  
 1316 	59.1011   	-64.848877  
 1317 	59.1461   	-65.495789  
 1318 	59.1910   	-65.136414  
 1319 	59.2360   	-65.495789  
 1320 	59.2809   	-66.430115  
 1321 	59.3258   	-66.502014  
 1322 	59.3708   	-65.783264  
 1323 	59.4157   	-65.639526  
 1324 	59.4607   	-64.848877  
 1325 	59.5056   	-66.645752  
 1326 	59.5506   	-66.717651  
 1327 	59.5955   	-66.933289  
 1328 	59.6405   	-65.998901  
 1329 	59.6854   	-66.717651  
 1330 	59.7303   	-66.358276  
 1331 	59.7753   	-66.070740  
 1332 	59.8202   	-66.358276  
 1333 	59.8652   	-67.148865  
 1334 	59.9101   	-67.508240  
 1335 	59.9551   	-67.508240  
 1336 	60.0000   	-68.370789  
 1337 	60.0449   	-67.795776  
 1338 	60.0899   	-68.298889  
 1339 	60.1348   	-68.442635  
 1340 	60.1798   	-69.089539  
 1341 	60.2247   	-68.514526  
 1342 	60.2697   	-68.083252  
 1343 	60.3146   	-68.226990  
 1344 	60.3596   	-69.017639  
 1345 	60.4045   	-69.880127  
 1346 	60.4494   	-69.736389  
 1347 	60.4944   	-69.233276  
 1348 	60.5393   	-69.233276  
 1349 	60.5843   	-69.592651  
 1350 	60.6292   	-69.448914  
 1351 	60.6742   	-68.586365  
 1352 	60.7191   	-68.873901  
 1353 	60.7640   	-68.586365  
 1354 	60.8090   	-68.514526  
 1355 	60.8539   	-69.448914  
 1356 	60.8989   	-69.592651  
 1357 	60.9438   	-69.233276  
 1358 	60.9888   	-69.089539  
 1359 	61.0337   	-69.089539  
 1360 	61.0787   	-69.017639  
 1361 	61.1236   	-70.023865  
 1362 	61.1685   	-69.592651  
 1363 	61.2135   	-69.089539  
 1364 	61.2584   	-68.586365  
 1365 	61.3034   	-69.377014  
 1366 	61.3483   	-69.233276  
 1367 	61.3933   	-69.377014  
 1368 	61.4382   	-69.520760  
 1369 	61.4831   	-69.664490  
 1370 	61.5281   	-69.736389  
 1371 	61.5730   	-70.311401  
 1372 	61.6180   	-69.736389  
 1373 	61.6629   	-70.167664  
 1374 	61.7079   	-70.239502  
 1375 	61.7528   	-69.377014  
 1376 	61.7978   	-69.017639  
 1377 	61.8427   	-69.592651  
 1378 	61.8876   	-69.736389  
 1379 	61.9326   	-69.736389  
 1380 	61.9775   	-69.880127  
 1381 	62.0225   	-69.377014  
 1382 	62.0674   	-69.448914  
 1383 	62.1124   	-69.664490  
 1384 	62.1573   	-68.442635  
 1385 	62.2022   	-68.658264  
 1386 	62.2472   	-68.442635  
 1387 	62.2921   	-69.233276  
 1388 	62.3371   	-69.808296  
 1389 	62.3820   	-69.592651  
 1390 	62.4270   	-69.089539  
 1391 	62.4719   	-69.448914  
 1392 	62.5169   	-69.880127  
 1393 	62.5618   	-69.952026  
 1394 	62.6067   	-69.808296  
 1395 	62.6517   	-69.880127  
 1396 	62.6966   	-70.455139  
 1397 	62.7416   	-69.808296  
 1398 	62.7865   	-69.952026  
 1399 	62.8315   	-69.880127  
 1400 	62.8764   	-70.383240  
 1401 	62.9213   	-69.952026  
 1402 	62.9663   	-70.167664  
 1403 	63.0112   	-70.886421  
 1404 	63.0562   	-70.455139  
 1405 	63.1011   	-70.167664  
 1406 	63.1461   	-70.886421  
 1407 	63.1910   	-70.527039  
 1408 	63.2360   	-70.023865  
 1409 	63.2809   	-69.808296  
 1410 	63.3258   	-70.095764  
 1411 	63.3708   	-70.239502  
 1412 	63.4157   	-69.664490  
 1413 	63.4607   	-69.017639  
 1414 	63.5056   	-69.880127  
 1415 	63.5506   	-70.311401  
 1416 	63.5955   	-70.167664  
 1417 	63.6405   	-70.598885  
 1418 	63.6854   	-69.736389  
 1419 	63.7303   	-69.377014  
 1420 	63.7753   	-69.305115  
 1421 	63.8202   	-69.592651  
 1422 	63.8652   	-71.030151  
 1423 	63.9101   	-70.455139  
 1424 	63.9551   	-70.670776  
 1425 	64.0000   	-70.742615  
 1426 	64.0449   	-70.598885  
 1427 	64.0899   	-69.880127  
 1428 	64.1348   	-69.736389  
 1429 	64.1798   	-70.455139  
 1430 	64.2247   	-70.527039  
 1431 	64.2697   	-69.233276  
 1432 	64.3146   	-69.880127  
 1433 	64.3596   	-69.664490  
 1434 	64.4045   	-68.226990  
 1435 	64.4494   	-68.945740  
 1436 	64.4944   	-69.520760  
 1437 	64.5393   	-68.802002  
 1438 	64.5843   	-70.814514  
 1439 	64.6292   	-72.323914  
 1440 	64.6742   	-72.252014  
 1441 	64.7191   	-69.592651  
 1442 	64.7640   	-67.436401  
 1443 	64.8090   	-64.992615  
 1444 	64.8539   	-64.777039  
 1445 	64.8989   	-64.417664  
 1446 	64.9438   	-65.351990  
 1447 	64.9888   	-65.423889  
 1448 	65.0337   	-66.070740  
 1449 	65.0787   	-66.214539  
 1450 	65.1236   	-66.933289  
 1451 	65.1685   	-66.645752  
 1452 	65.2135   	-66.286385  
 1453 	65.2584   	-66.070740  
 1454 	65.3034   	-65.783264  
 1455 	65.3483   	-66.214539  
 1456 	65.3933   	-66.070740  
 1457 	65.4382   	-67.652046  
 1458 	65.4831   	-67.580139  
 1459 	65.5281   	-66.933289  
 1460 	65.5730   	-67.220764  
 1461 	65.6180   	-68.370789  
 1462 	65.6629   	-68.658264  
 1463 	65.7079   	-69.448914  
 1464 	65.7528   	-69.448914  
 1465 	65.7978   	-68.945740  
 1466 	65.8427   	-69.089539  
 1467 	65.8876   	-69.664490  
 1468 	65.9326   	-70.095764  
 1469 	65.9775   	-69.305115  
 1470 	66.0225   	-68.802002  
 1471 	66.0674   	-70.383240  
 1472 	66.1124   	-69.448914  
 1473 	66.1573   	-70.167664  
 1474 	66.2022   	-71.173889  
 1475 	66.2472   	-71.030151  
 1476 	66.2921   	-69.736389  
 1477 	66.3371   	-69.377014  
 1478 	66.3820   	-69.592651  
 1479 	66.4270   	-70.383240  
 1480 	66.4719   	-70.383240  
 1481 	66.5169   	-70.023865  
 1482 	66.5618   	-69.664490  
 1483 	66.6067   	-69.305115  
 1484 	66.6517   	-69.664490  
 1485 	66.6966   	-69.377014  
 1486 	66.7416   	-69.736389  
 1487 	66.7865   	-70.095764  
 1488 	66.8315   	-70.239502  
 1489 	66.8764   	-68.945740  
 1490 	66.9213   	-68.945740  
 1491 	66.9663   	-69.017639  
 1492 	67.0112   	-69.161377  
 1493 	67.0562   	-68.945740  
 1494 	67.1011   	-69.952026  
 1495 	67.1461   	-69.233276  
 1496 	67.1910   	-69.305115  
 1497 	67.2360   	-68.370789  
 1498 	67.2809   	-68.802002  
 1499 	67.3258   	-69.233276  
 1500 	67.3708   	-68.370789  
 1501 	67.4157   	-68.155151  
 1502 	67.4607   	-68.873901  
 1503 	67.5056   	-69.089539  
 1504 	67.5506   	-69.664490  
 1505 	67.5955   	-70.455139  
 1506 	67.6405   	-70.598885  
 1507 	67.6854   	-70.814514  
 1508 	67.7303   	-69.448914  
 1509 	67.7753   	-70.383240  
 1510 	67.8202   	-70.239502  
 1511 	67.8652   	-69.664490  
 1512 	67.9101   	-70.311401  
 1513 	67.9551   	-69.448914  
 1514 	68.0000   	-70.023865  
 1515 	68.0449   	-69.808296  
 1516 	68.0899   	-69.808296  
 1517 	68.1348   	-69.448914  
 1518 	68.1798   	-69.664490  
 1519 	68.2247   	-69.592651  
 1520 	68.2697   	-70.311401  
 1521 	68.3146   	-69.880127  
 1522 	68.3596   	-70.023865  
 1523 	68.4045   	-69.808296  
 1524 	68.4494   	-69.017639  
 1525 	68.4944   	-69.520760  
 1526 	68.5393   	-69.952026  
 1527 	68.5843   	-69.952026  
 1528 	68.6292   	-69.592651  
 1529 	68.6742   	-70.383240  
 1530 	68.7191   	-70.095764  
 1531 	68.7640   	-70.886421  
 1532 	68.8090   	-71.101997  
 1533 	68.8539   	-70.383240  
 1534 	68.8989   	-69.952026  
 1535 	68.9438   	-70.167664  
 1536 	68.9888   	-70.023865  
 1537 	69.0337   	-69.305115  
 1538 	69.0787   	-69.377014  
 1539 	69.1236   	-69.305115  
 1540 	69.1685   	-69.952026  
 1541 	69.2135   	-69.377014  
 1542 	69.2584   	-69.808296  
 1543 	69.3034   	-70.958252  
 1544 	69.3483   	-69.736389  
 1545 	69.3933   	-69.305115  
 1546 	69.4382   	-69.305115  
 1547 	69.4831   	-69.305115  
 1548 	69.5281   	-69.520760  
 1549 	69.5730   	-69.808296  
 1550 	69.6180   	-70.095764  
 1551 	69.6629   	-70.095764  
 1552 	69.7079   	-69.520760  
 1553 	69.7528   	-68.586365  
 1554 	69.7978   	-68.945740  
 1555 	69.8427   	-68.586365  
 1556 	69.8876   	-68.658264  
 1557 	69.9326   	-68.370789  
 1558 	69.9775   	-69.233276  
 1559 	70.0225   	-69.592651  
 1560 	70.0674   	-69.736389  
 1561 	70.1124   	-69.448914  
 1562 	70.1573   	-69.305115  
 1563 	70.2022   	-68.226990  
 1564 	70.2472   	-69.017639  
 1565 	70.2921   	-69.592651  
 1566 	70.3371   	-69.377014  
 1567 	70.3820   	-69.305115  
 1568 	70.4270   	-69.233276  
 1569 	70.4719   	-69.664490  
 1570 	70.5169   	-69.305115  
 1571 	70.5618   	-69.736389  
 1572 	70.6067   	-69.880127  
 1573 	70.6517   	-69.520760  
 1574 	70.6966   	-69.808296  
 1575 	70.7416   	-69.952026  
 1576 	70.7865   	-69.592651  
 1577 	70.8315   	-67.867615  
 1578 	70.8764   	-68.155151  
 1579 	70.9213   	-67.939514  
 1580 	70.9663   	-68.730171  
 1581 	71.0112   	-69.017639  
 1582 	71.0562   	-69.952026  
 1583 	71.1011   	-70.023865  
 1584 	71.1461   	-70.167664  
 1585 	71.1910   	-69.017639  
 1586 	71.2360   	-70.095764  
 1587 	71.2809   	-69.736389  
 1588 	71.3258   	-70.527039  
 1589 	71.3708   	-69.736389  
 1590 	71.4157   	-68.586365  
 1591 	71.4607   	-68.873901  
 1592 	71.5056   	-68.226990  
 1593 	71.5506   	-68.083252  
 1594 	71.5955   	-69.017639  
 1595 	71.6405   	-69.089539  
 1596 	71.6854   	-68.802002  
 1597 	71.7303   	-68.945740  
 1598 	71.7753   	-68.514526  
 1599 	71.8202   	-68.945740  
 1600 	71.8652   	-69.089539  
 1601 	71.9101   	-68.586365  
 1602 	71.9551   	-68.442635  
 1603 	72.0000   	-68.586365  
 1604 	72.0449   	-68.298889  
 1605 	72.0899   	-68.586365  
 1606 	72.1348   	-68.802002  
 1607 	72.1798   	-67.723877  
 1608 	72.2247   	-68.442635  
 1609 	72.2697   	-68.802002  
 1610 	72.3146   	-68.945740  
 1611 	72.3596   	-69.161377  
 1612 	72.4045   	-69.880127  
 1613 	72.4494   	-69.377014  
 1614 	72.4944   	-69.448914  
 1615 	72.5393   	-68.730171  
 1616 	72.5843   	-68.873901  
 1617 	72.6292   	-68.442635  
 1618 	72.6742   	-68.370789  
 1619 	72.7191   	-68.226990  
 1620 	72.7640   	-67.939514  
 1621 	72.8090   	-67.867615  
 1622 	72.8539   	-68.083252  
 1623 	72.8989   	-68.011414  
 1624 	72.9438   	-67.795776  
 1625 	72.9888   	-68.442635  
 1626 	73.0337   	-69.017639  
 1627 	73.0787   	-68.514526  
 1628 	73.1236   	-69.233276  
 1629 	73.1685   	-68.586365  
 1630 	73.2135   	-69.233276  
 1631 	73.2584   	-69.233276  
 1632 	73.3034   	-69.880127  
 1633 	73.3483   	-69.736389  
 1634 	73.3933   	-69.736389  
 1635 	73.4382   	-69.808296  
 1636 	73.4831   	-69.377014  
 1637 	73.5281   	-69.952026  
 1638 	73.5730   	-69.592651  
 1639 	73.6180   	-69.305115  
 1640 	73.6629   	-68.514526  
 1641 	73.7079   	-68.658264  
 1642 	73.7528   	-69.305115  
 1643 	73.7978   	-68.945740  
 1644 	73.8427   	-69.520760  
 1645 	73.8876   	-68.442635  
 1646 	73.9326   	-69.161377  
 1647 	73.9775   	-69.305115  
 1648 	74.0225   	-68.514526  
 1649 	74.0674   	-68.370789  
 1650 	74.1124   	-67.939514  
 1651 	74.1573   	-68.442635  
 1652 	74.2022   	-69.089539  
 1653 	74.2472   	-69.233276  
 1654 	74.2921   	-69.089539  
 1655 	74.3371   	-69.233276  
 1656 	74.3820   	-69.448914  
 1657 	74.4270   	-70.167664  
 1658 	74.4719   	-71.030151  
 1659 	74.5169   	-71.892639  
 1660 	74.5618   	-72.036377  
 1661 	74.6067   	-72.323914  
 1662 	74.6517   	-71.173889  
 1663 	74.6966   	-68.945740  
 1664 	74.7416   	-67.508240  
 1665 	74.7865   	-67.292664  
 1666 	74.8315   	-66.142639  
 1667 	74.8764   	-64.992615  
 1668 	74.9213   	-63.770756  
 1669 	74.9663   	-63.770756  
 1670 	75.0112   	-65.136414  
 1671 	75.0562   	-67.364510  
 1672 	75.1011   	-69.448914  
 1673 	75.1461   	-70.383240  
 1674 	75.1910   	-70.742615  
 1675 	75.2360   	-70.742615  
 1676 	75.2809   	-70.311401  
 1677 	75.3258   	-68.873901  
 1678 	75.3708   	-69.808296  
 1679 	75.4157   	-69.736389  
 1680 	75.4607   	-70.167664  
 1681 	75.5056   	-69.880127  
 1682 	75.5506   	-69.305115  
 1683 	75.5955   	-69.448914  
 1684 	75.6405   	-69.664490  
 1685 	75.6854   	-69.808296  
 1686 	75.7303   	-70.455139  
 1687 	75.7753   	-70.167664  
 1688 	75.8202   	-69.880127  
 1689 	75.8652   	-69.017639  
 1690 	75.9101   	-68.514526  
 1691 	75.9551   	-68.370789  
 1692 	76.0000   	-68.586365  
 1693 	76.0449   	-68.083252  
 1694 	76.0899   	-68.442635  
 1695 	76.1348   	-69.017639  
 1696 	76.1798   	-69.664490  
 1697 	76.2247   	-69.592651  
 1698 	76.2697   	-69.592651  
 1699 	76.3146   	-69.520760  
 1700 	76.3596   	-69.305115  
 1701 	76.4045   	-69.808296  
 1702 	76.4494   	-69.592651  
 1703 	76.4944   	-69.808296  
 1704 	76.5393   	-69.448914  
 1705 	76.5843   	-69.736389  
 1706 	76.6292   	-68.873901  
 1707 	76.6742   	-69.520760  
 1708 	76.7191   	-69.736389  
 1709 	76.7640   	-69.520760  
 1710 	76.8090   	-70.167664  
 1711 	76.8539   	-69.520760  
 1712 	76.8989   	-68.873901  
 1713 	76.9438   	-69.520760  
 1714 	76.9888   	-68.083252  
 1715 	77.0337   	-68.226990  
 1716 	77.0787   	-68.442635  
 1717 	77.1236   	-69.233276  
 1718 	77.1685   	-68.442635  
 1719 	77.2135   	-68.802002  
 1720 	77.2584   	-69.233276  
 1721 	77.3034   	-69.089539  
 1722 	77.3483   	-69.089539  
 1723 	77.3933   	-68.945740  
 1724 	77.4382   	-69.305115  
 1725 	77.4831   	-68.802002  
 1726 	77.5281   	-69.448914  
 1727 	77.5730   	-68.802002  
 1728 	77.6180   	-69.017639  
 1729 	77.6629   	-68.586365  
 1730 	77.7079   	-68.442635  
 1731 	77.7528   	-70.455139  
 1732 	77.7978   	-69.520760  
 1733 	77.8427   	-68.873901  
 1734 	77.8876   	-69.161377  
 1735 	77.9326   	-69.808296  
 1736 	77.9775   	-70.383240  
 1737 	78.0225   	-69.952026  
 1738 	78.0674   	-69.448914  
 1739 	78.1124   	-70.311401  
 1740 	78.1573   	-70.023865  
 1741 	78.2022   	-70.167664  
 1742 	78.2472   	-69.952026  
 1743 	78.2921   	-68.586365  
 1744 	78.3371   	-69.448914  
 1745 	78.3820   	-69.377014  
 1746 	78.4270   	-69.448914  
 1747 	78.4719   	-68.730171  
 1748 	78.5169   	-68.873901  
 1749 	78.5618   	-67.723877  
 1750 	78.6067   	-67.939514  
 1751 	78.6517   	-67.723877  
 1752 	78.6966   	-68.586365  
 1753 	78.7416   	-68.155151  
 1754 	78.7865   	-67.795776  
 1755 	78.8315   	-68.945740  
 1756 	78.8764   	-68.658264  
 1757 	78.9213   	-68.873901  
 1758 	78.9663   	-68.730171  
 1759 	79.0112   	-68.586365  
 1760 	79.0562   	-68.658264  
 1761 	79.1011   	-67.508240  
 1762 	79.1461   	-68.083252  
 1763 	79.1910   	-67.652046  
 1764 	79.2360   	-69.161377  
 1765 	79.2809   	-69.017639  
 1766 	79.3258   	-68.730171  
 1767 	79.3708   	-68.658264  
 1768 	79.4157   	-68.945740  
 1769 	79.4607   	-68.083252  
 1770 	79.5056   	-67.580139  
 1771 	79.5506   	-68.586365  
 1772 	79.5955   	-68.370789  
 1773 	79.6405   	-68.155151  
 1774 	79.6854   	-68.442635  
 1775 	79.7303   	-68.586365  
 1776 	79.7753   	-69.520760  
 1777 	79.8202   	-68.945740  
 1778 	79.8652   	-69.664490  
 1779 	79.9101   	-68.226990  
 1780 	79.9551   	-68.658264  
 1781 	80.0000   	-68.226990  
 1782 	80.0449   	-68.586365  
 1783 	80.0899   	-68.945740  
 1784 	80.1348   	-69.089539  
 1785 	80.1798   	-69.448914  
 1786 	80.2247   	-68.514526  
 1787 	80.2697   	-68.514526  
 1788 	80.3146   	-68.514526  
 1789 	80.3596   	-67.867615  
 1790 	80.4045   	-67.508240  
 1791 	80.4494   	-69.089539  
 1792 	80.4944   	-68.945740  
 1793 	80.5393   	-69.520760  
 1794 	80.5843   	-68.802002  
 1795 	80.6292   	-68.730171  
 1796 	80.6742   	-68.658264  
 1797 	80.7191   	-69.592651  
 1798 	80.7640   	-69.089539  
 1799 	80.8090   	-68.802002  
 1800 	80.8539   	-68.945740  
 1801 	80.8989   	-68.873901  
 1802 	80.9438   	-68.873901  
 1803 	80.9888   	-68.370789  
 1804 	81.0337   	-68.155151  
 1805 	81.0787   	-68.802002  
 1806 	81.1236   	-69.017639  
 1807 	81.1685   	-69.233276  
 1808 	81.2135   	-69.736389  
 1809 	81.2584   	-69.161377  
 1810 	81.3034   	-69.377014  
 1811 	81.3483   	-70.311401  
 1812 	81.3933   	-69.880127  
 1813 	81.4382   	-70.095764  
 1814 	81.4831   	-69.017639  
 1815 	81.5281   	-68.873901  
 1816 	81.5730   	-68.083252  
 1817 	81.6180   	-67.939514  
 1818 	81.6629   	-67.652046  
 1819 	81.7079   	-68.370789  
 1820 	81.7528   	-68.873901  
 1821 	81.7978   	-68.802002  
 1822 	81.8427   	-69.664490  
 1823 	81.8876   	-69.520760  
 1824 	81.9326   	-69.017639  
 1825 	81.9775   	-68.945740  
 1826 	82.0225   	-68.730171  
 1827 	82.0674   	-68.658264  
 1828 	82.1124   	-68.873901  
 1829 	82.1573   	-68.514526  
 1830 	82.2022   	-67.867615  
 1831 	82.2472   	-69.520760  
 1832 	82.2921   	-69.161377  
 1833 	82.3371   	-67.939514  
 1834 	82.3820   	-68.442635  
 1835 	82.4270   	-68.514526  
 1836 	82.4719   	-68.298889  
 1837 	82.5169   	-68.226990  
 1838 	82.5618   	-68.586365  
 1839 	82.6067   	-68.802002  
 1840 	82.6517   	-69.089539  
 1841 	82.6966   	-68.730171  
 1842 	82.7416   	-68.873901  
 1843 	82.7865   	-69.377014  
 1844 	82.8315   	-69.305115  
 1845 	82.8764   	-69.305115  
 1846 	82.9213   	-69.305115  
 1847 	82.9663   	-68.442635  
 1848 	83.0112   	-68.226990  
 1849 	83.0562   	-67.652046  
 1850 	83.1011   	-68.083252  
 1851 	83.1461   	-69.017639  
 1852 	83.1910   	-69.377014  
 1853 	83.2360   	-69.736389  
 1854 	83.2809   	-69.808296  
 1855 	83.3258   	-68.298889  
 1856 	83.3708   	-68.155151  
 1857 	83.4157   	-68.011414  
 1858 	83.4607   	-68.155151  
 1859 	83.5056   	-67.652046  
 1860 	83.5506   	-68.442635  
 1861 	83.5955   	-68.155151  
 1862 	83.6405   	-68.226990  
 1863 	83.6854   	-68.298889  
 1864 	83.7303   	-67.795776  
 1865 	83.7753   	-67.508240  
 1866 	83.8202   	-68.730171  
 1867 	83.8652   	-69.305115  
 1868 	83.9101   	-69.520760  
 1869 	83.9551   	-68.873901  
 1870 	84.0000   	-69.017639  
 1871 	84.0449   	-68.514526  
 1872 	84.0899   	-68.873901  
 1873 	84.1348   	-69.017639  
 1874 	84.1798   	-68.514526  
 1875 	84.2247   	-67.939514  
 1876 	84.2697   	-68.802002  
 1877 	84.3146   	-69.089539  
 1878 	84.3596   	-68.083252  
 1879 	84.4045   	-67.508240  
 1880 	84.4494   	-67.436401  
 1881 	84.4944   	-67.220764  
 1882 	84.5393   	-67.867615  
 1883 	84.5843   	-67.364510  
 1884 	84.6292   	-67.148865  
 1885 	84.6742   	-67.723877  
 1886 	84.7191   	-67.077026  
 1887 	84.7640   	-67.939514  
 1888 	84.8090   	-68.083252  
 1889 	84.8539   	-68.586365  
 1890 	84.8989   	-68.873901  
 1891 	84.9438   	-68.226990  
 1892 	84.9888   	-68.442635  
 1893 	85.0337   	-68.298889  
 1894 	85.0787   	-68.155151  
 1895 	85.1236   	-67.723877  
 1896 	85.1685   	-68.442635  
 1897 	85.2135   	-68.873901  
 1898 	85.2584   	-68.730171  
 1899 	85.3034   	-68.730171  
 1900 	85.3483   	-68.155151  
 1901 	85.3933   	-67.939514  
 1902 	85.4382   	-68.514526  
 1903 	85.4831   	-68.586365  
 1904 	85.5281   	-68.586365  
 1905 	85.5730   	-68.586365  
 1906 	85.6180   	-68.442635  
 1907 	85.6629   	-68.658264  
 1908 	85.7079   	-68.514526  
 1909 	85.7528   	-68.945740  
 1910 	85.7978   	-69.520760  
 1911 	85.8427   	-69.520760  
 1912 	85.8876   	-68.514526  
 1913 	85.9326   	-68.442635  
 1914 	85.9775   	-69.377014  
 1915 	86.0225   	-68.802002  
 1916 	86.0674   	-68.442635  
 1917 	86.1124   	-68.658264  
 1918 	86.1573   	-69.664490  
 1919 	86.2022   	-68.945740  
 1920 	86.2472   	-69.377014  
 1921 	86.2921   	-68.586365  
 1922 	86.3371   	-68.155151  
 1923 	86.3820   	-68.586365  
 1924 	86.4270   	-67.652046  
 1925 	86.4719   	-68.298889  
 1926 	86.5169   	-68.730171  
 1927 	86.5618   	-68.730171  
 1928 	86.6067   	-68.226990  
 1929 	86.6517   	-68.514526  
 1930 	86.6966   	-68.586365  
 1931 	86.7416   	-68.083252  
 1932 	86.7865   	-68.011414  
 1933 	86.8315   	-67.580139  
 1934 	86.8764   	-69.017639  
 1935 	86.9213   	-68.730171  
 1936 	86.9663   	-68.370789  
 1937 	87.0112   	-68.658264  
 1938 	87.0562   	-68.945740  
 1939 	87.1011   	-68.802002  
 1940 	87.1461   	-69.736389  
 1941 	87.1910   	-69.592651  
 1942 	87.2360   	-69.736389  
 1943 	87.2809   	-69.880127  
 1944 	87.3258   	-69.377014  
 1945 	87.3708   	-69.377014  
 1946 	87.4157   	-70.023865  
 1947 	87.4607   	-69.089539  
 1948 	87.5056   	-68.730171  
 1949 	87.5506   	-69.089539  
 1950 	87.5955   	-69.233276  
 1951 	87.6405   	-68.802002  
 1952 	87.6854   	-69.880127  
 1953 	87.7303   	-69.664490  
 1954 	87.7753   	-69.520760  
 1955 	87.8202   	-69.664490  
 1956 	87.8652   	-68.802002  
 1957 	87.9101   	-68.586365  
 1958 	87.9551   	-68.226990  
 1959 	88.0000   	-68.586365  
 1960 	88.0449   	-68.514526  
 1961 	88.0899   	-68.730171  
 1962 	88.1348   	-68.873901  
 1963 	88.1798   	-68.658264  
 1964 	88.2247   	-68.298889  
 1965 	88.2697   	-67.580139  
 1966 	88.3146   	-67.867615  
 1967 	88.3596   	-68.298889  
 1968 	88.4045   	-68.658264  
 1969 	88.4494   	-68.514526  
 1970 	88.4944   	-68.658264  
 1971 	88.5393   	-68.658264  
 1972 	88.5843   	-68.586365  
 1973 	88.6292   	-69.089539  
 1974 	88.6742   	-69.736389  
 1975 	88.7191   	-69.161377  
 1976 	88.7640   	-68.658264  
 1977 	88.8090   	-68.658264  
 1978 	88.8539   	-68.658264  
 1979 	88.8989   	-68.155151  
 1980 	88.9438   	-69.089539  
 1981 	88.9888   	-68.514526  
 1982 	89.0337   	-68.011414  
 1983 	89.0787   	-68.298889  
 1984 	89.1236   	-69.664490  
 1985 	89.1685   	-69.377014  
 1986 	89.2135   	-69.161377  
 1987 	89.2584   	-69.448914  
 1988 	89.3034   	-69.017639  
 1989 	89.3483   	-68.083252  
 1990 	89.3933   	-68.155151  
 1991 	89.4382   	-68.370789  
 1992 	89.4831   	-68.514526  
 1993 	89.5281   	-68.083252  
 1994 	89.5730   	-68.802002  
 1995 	89.6180   	-68.514526  
 1996 	89.6629   	-67.723877  
 1997 	89.7079   	-67.795776  
 1998 	89.7528   	-67.867615  
 1999 	89.7978   	-67.939514  
 2000 	89.8427   	-68.658264  
 2001 	89.8876   	-68.226990  
 2002 	89.9326   	-68.873901  
 2003 	89.9775   	-68.514526  
 2004 	90.0225   	-68.586365  
 2005 	90.0674   	-68.155151  
 2006 	90.1124   	-67.867615  
 2007 	90.1573   	-69.305115  
 2008 	90.2022   	-68.586365  
 2009 	90.2472   	-69.089539  
 2010 	90.2921   	-68.658264  
 2011 	90.3371   	-68.802002  
 2012 	90.3820   	-68.730171  
 2013 	90.4270   	-69.305115  
 2014 	90.4719   	-69.377014  
 2015 	90.5169   	-68.945740  
 2016 	90.5618   	-69.089539  
 2017 	90.6067   	-68.226990  
 2018 	90.6517   	-68.298889  
 2019 	90.6966   	-68.083252  
 2020 	90.7416   	-67.508240  
 2021 	90.7865   	-67.580139  
 2022 	90.8315   	-68.730171  
 2023 	90.8764   	-68.011414  
 2024 	90.9213   	-68.370789  
 2025 	90.9663   	-68.873901  
 2026 	91.0112   	-67.867615  
 2027 	91.0562   	-67.580139  
 2028 	91.1011   	-67.148865  
 2029 	91.1461   	-67.292664  
 2030 	91.1910   	-68.155151  
 2031 	91.2360   	-68.298889  
 2032 	91.2809   	-68.083252  
 2033 	91.3258   	-68.226990  
 2034 	91.3708   	-68.298889  
 2035 	91.4157   	-69.017639  
 2036 	91.4607   	-68.514526  
 2037 	91.5056   	-68.298889  
 2038 	91.5506   	-68.226990  
 2039 	91.5955   	-67.580139  
 2040 	91.6405   	-67.939514  
 2041 	91.6854   	-68.370789  
 2042 	91.7303   	-68.730171  
 2043 	91.7753   	-69.520760  
 2044 	91.8202   	-69.089539  
 2045 	91.8652   	-69.161377  
 2046 	91.9101   	-68.873901  
 2047 	91.9551   	-68.873901  
 2048 	92.0000   	-69.017639  

